timestamp;emg1;emg2;emg3;emg4;emg5;emg6;emg7;emg8;gyrox;gyroy;gyroz
14:40:14.501;-145;-139;-152;-213;2070;-154;-146;62;432;-64;16052
14:40:14.501;-151;-147;-182;-210;2070;-154;-147;84;432;-64;16052
14:40:14.501;-149;-144;-180;-183;1925;-153;-145;-43;448;-60;15992
14:40:14.501;-151;-143;-126;-197;1871;-152;-145;84;448;-60;15992
14:40:14.501;-149;-140;-145;-199;1978;-153;-145;-330;448;-60;15992
14:40:14.501;-157;-146;-137;-188;1969;-150;-145;-203;448;-60;15992
14:40:14.501;-149;-140;-120;-185;2066;-150;-148;370;448;-60;15992
14:40:14.501;-147;-133;-130;-197;2011;-150;-148;314;448;-60;15992
14:40:14.501;-150;-145;-130;-248;2070;-149;-143;136;524;-56;15964
14:40:14.501;-147;-142;-135;-250;2070;-149;-145;263;524;-56;15964
14:40:14.501;-150;-143;-209;-234;2070;-145;-145;377;524;-56;15964
14:40:14.501;-150;-134;-179;-186;2070;-146;-147;209;524;-56;15964
14:40:14.501;-150;-133;-159;-120;2070;-149;-146;395;524;-56;15964
14:40:14.501;-149;-136;-145;-80;2070;-149;-144;268;524;-56;15964
14:40:14.501;-149;-141;-140;-133;2070;-145;-148;-43;484;-48;15988
14:40:14.501;-149;-136;-137;-173;2070;-150;-146;10;484;-48;15988
14:40:14.501;-151;-141;-138;-195;2070;-153;-144;-379;484;-48;15988
14:40:14.501;-147;-137;-142;-196;2070;-149;-148;-252;484;-48;15988
14:40:14.517;-153;-150;-155;-182;2028;-152;-148;105;484;-48;15988
14:40:14.517;-154;-149;-132;-175;2070;-152;-147;232;484;-48;15988
14:40:14.517;-153;-150;-155;-182;2028;-152;-147;313;552;-16;15792
14:40:14.517;-149;-147;-136;-192;2070;-151;-147;103;552;-16;15792
14:40:14.517;-148;-149;-124;-202;2070;-150;-145;-145;552;-16;15792
14:40:14.517;-151;-143;-128;-219;1976;-152;-148;-18;552;-16;15792
14:40:14.517;-149;-146;-147;-232;2013;-152;-145;-20;552;-16;15792
14:40:14.517;-153;-146;-126;-235;2070;-150;-142;377;552;-16;15792
14:40:14.517;-146;-142;-129;-202;2070;-151;-144;-228;552;-16;15792
14:40:14.517;-151;-147;-162;-193;2070;-147;-145;-101;552;-16;15792
14:40:14.517;-153;-140;-176;-160;2070;-148;-144;-46;524;12;15924
14:40:14.517;-151;-137;-177;-164;2070;-146;-144;327;524;12;15924
14:40:14.517;-147;-133;-147;-179;2070;-149;-144;-121;524;12;15924
14:40:14.517;-146;-136;-136;-186;2070;-145;-146;6;524;12;15924
14:40:14.517;-153;-148;-138;-187;2070;-149;-144;136;524;12;15924
14:40:14.517;-150;-147;-145;-163;2070;-146;-148;263;524;12;15924
14:40:14.532;-151;-146;-158;-167;2070;-147;-149;-177;536;60;15984
14:40:14.532;-146;-143;-138;-195;2070;-151;-146;-50;536;60;15984
14:40:14.532;-148;-139;-144;-186;2070;-153;-143;-369;536;60;15984
14:40:14.532;-144;-134;-136;-198;2070;-155;-148;-242;536;60;15984
14:40:14.532;-152;-144;-155;-205;2070;-154;-145;-93;536;60;15984
14:40:14.532;-153;-143;-153;-192;2070;-153;-147;34;536;60;15984
14:40:14.532;-152;-144;-147;-158;2070;-153;-147;417;500;-20;16000
14:40:14.532;-150;-146;-153;-130;2070;-151;-144;377;500;-20;16000
14:40:14.532;-149;-142;-140;-165;2070;-152;-146;250;500;-20;16000
14:40:14.532;-149;-137;-127;-182;2070;-150;-146;252;500;-20;16000
14:40:14.532;-151;-143;-119;-190;2026;-151;-145;112;500;-20;16000
14:40:14.532;-151;-141;-133;-194;1925;-150;-147;-15;500;-20;16000
14:40:14.532;-152;-146;-126;-208;2070;-151;-141;-124;508;-8;16128
14:40:14.532;-149;-145;-126;-213;2070;-146;-146;3;508;-8;16128
14:40:14.532;-144;-140;-150;-242;2070;-149;-152;125;508;-8;16128
14:40:14.532;-147;-140;-172;-241;2070;-148;-150;-108;508;-8;16128
14:40:14.532;-146;-141;-156;-214;2070;-149;-139;-295;508;-8;16128
14:40:14.532;-148;-143;-134;-176;2070;-152;-147;-168;508;-8;16128
14:40:14.548;-148;-139;-102;-134;2070;-149;-147;131;508;68;16000
14:40:14.548;-153;-138;-108;-108;2070;-152;-148;4;508;68;16000
14:40:14.548;-147;-140;-173;-175;2070;-155;-144;-377;508;68;16000
14:40:14.548;-150;-149;-173;-208;2070;-151;-149;-250;508;68;16000
14:40:14.548;-156;-148;-194;-215;2070;-152;-153;194;508;68;16000
14:40:14.548;-145;-143;-176;-233;2070;-153;-150;155;508;68;16000
14:40:14.548;-148;-144;-130;-197;2070;-152;-146;-215;528;28;15824
14:40:14.548;-148;-139;-117;-128;2070;-153;-148;-88;528;28;15824
14:40:14.548;-153;-138;-174;-159;2070;-151;-147;194;528;28;15824
14:40:14.548;-151;-134;-165;-184;2070;-150;-146;321;528;28;15824
14:40:14.548;-148;-139;-147;-175;2070;-151;-147;-152;528;28;15824
14:40:14.548;-149;-139;-130;-170;2070;-151;-145;-25;528;28;15824
14:40:14.548;-150;-144;-132;-235;2070;-151;-144;152;516;44;15912
14:40:14.548;-149;-143;-143;-236;2070;-151;-148;25;516;44;15912
14:40:14.548;-154;-144;-138;-215;2070;-152;-141;-89;516;44;15912
14:40:14.548;-149;-140;-140;-185;2070;-149;-141;361;516;44;15912
14:40:14.548;-146;-137;-139;-160;2070;-150;-143;-318;516;44;15912
14:40:14.563;-147;-140;-119;-115;2070;-148;-146;-191;516;44;15912
14:40:14.563;-143;-131;-166;-146;2070;-148;-145;-156;564;88;15984
14:40:14.563;-149;-149;-147;-189;2070;-152;-148;-60;564;88;15984
14:40:14.563;-158;-144;-107;-192;2070;-153;-145;-107;564;88;15984
14:40:14.563;-149;-138;-170;-129;2070;-153;-146;-88;564;88;15984
14:40:14.563;-148;-147;-143;-145;2070;-154;-144;-423;564;88;15984
14:40:14.563;-147;-145;-137;-189;2070;-153;-148;-296;564;88;15984
14:40:14.563;-148;-148;-111;-205;2070;-152;-151;127;508;-24;16036
14:40:14.563;-151;-139;-123;-195;2070;-152;-149;240;508;-24;16036
14:40:14.563;-145;-133;-218;-178;2070;-152;-144;-170;508;-24;16036
14:40:14.563;-148;-143;-167;-186;2070;-153;-146;-43;508;-24;16036
14:40:14.563;-154;-149;-140;-211;2070;-153;-145;-430;508;-24;16036
14:40:14.563;-149;-141;-142;-220;2052;-151;-147;-303;508;-24;16036
14:40:14.563;-151;-138;-137;-208;2070;-153;-142;76;548;20;15936
14:40:14.563;-147;-139;-138;-173;2070;-149;-146;203;548;20;15936
14:40:14.563;-147;-140;-144;-163;2070;-148;-147;-151;548;20;15936
14:40:14.563;-147;-140;-150;-180;2070;-150;-149;-121;548;20;15936
14:40:14.579;-150;-143;-144;-191;2070;-149;-143;18;548;20;15936
14:40:14.579;-154;-148;-138;-185;2070;-152;-148;145;548;20;15936
14:40:14.579;-147;-144;-148;-181;2070;-151;-141;-133;500;72;16072
14:40:14.579;-152;-146;-145;-179;2070;-147;-145;-6;500;72;16072
14:40:14.579;-147;-141;-136;-185;2070;-153;-153;149;500;72;16072
14:40:14.579;-151;-147;-140;-189;2070;-152;-149;117;500;72;16072
14:40:14.579;-150;-145;-135;-202;2070;-151;-144;-13;500;72;16072
14:40:14.579;-147;-141;-137;-238;2070;-152;-145;114;500;72;16072
14:40:14.579;-148;-143;-135;-239;2070;-153;-146;-375;480;-20;16044
14:40:14.579;-144;-138;-136;-234;2070;-154;-147;-248;480;-20;16044
14:40:14.579;-152;-142;-126;-184;1879;-153;-147;-121;480;-20;16044
14:40:14.579;-151;-139;-134;-122;2006;-152;-146;-248;480;-20;16044
14:40:14.579;-153;-141;-143;-158;2070;-150;-146;-242;480;-20;16044
14:40:14.579;-149;-140;-153;-187;1765;-149;-149;-162;480;-20;16044
14:40:14.595;-147;-139;-158;-182;1977;-152;-144;-289;516;-68;16000
14:40:14.595;-146;-137;-120;-133;2070;-152;-147;-162;516;-68;16000
14:40:14.595;-149;-141;-119;-165;2070;-149;-147;369;516;-68;16000
14:40:14.595;-148;-141;-161;-182;2070;-147;-143;242;516;-68;16000
14:40:14.595;-148;-146;-179;-203;2070;-146;-146;-82;516;-68;16000
14:40:14.595;-149;-144;-138;-254;2070;-147;-146;45;516;-68;16000
14:40:14.595;-149;-141;-134;-275;2070;-145;-140;-328;492;0;16048
14:40:14.595;-149;-140;-148;-248;2070;-149;-147;-201;492;0;16048
14:40:14.595;-149;-149;-141;-177;2070;-148;-146;281;492;0;16048
14:40:14.595;-148;-138;-125;-146;2070;-150;-143;348;492;0;16048
14:40:14.595;-151;-133;-109;-99;2070;-153;-146;336;492;0;16048
14:40:14.595;-151;-136;-216;-100;2070;-152;-147;-359;492;0;16048
14:40:14.595;-150;-143;-192;-107;2015;-153;-142;-257;492;80;16084
14:40:14.595;-149;-146;-128;-164;1852;-150;-145;-130;492;80;16084
14:40:14.610;-147;-143;-148;-179;1725;-153;-146;-112;492;80;16084
14:40:14.610;-145;-144;-170;-196;1598;-153;-146;-63;492;80;16084
14:40:14.610;-151;-153;-150;-202;1146;-153;-144;57;492;80;16084
14:40:14.610;-151;-149;-144;-187;1273;-151;-146;184;492;80;16084
14:40:14.610;-149;-143;-147;-181;1233;-151;-144;57;568;-116;16020
14:40:14.610;-151;-140;-129;-192;1278;-152;-143;333;568;-116;16020
14:40:14.610;-151;-141;-154;-198;1240;-151;-143;-235;568;-116;16020
14:40:14.610;-150;-139;-134;-207;1344;-150;-146;-108;568;-116;16020
14:40:14.610;-152;-139;-128;-216;1644;-150;-142;-235;568;-116;16020
14:40:14.610;-148;-134;-140;-194;1771;-150;-147;-108;568;-116;16020
14:40:14.610;-149;-143;-153;-198;2070;-148;-146;19;500;-60;16044
14:40:14.610;-149;-145;-142;-197;1984;-149;-143;-30;500;-60;16044
14:40:14.610;-149;-149;-130;-174;2070;-150;-154;20;500;-60;16044
14:40:14.610;-148;-145;-128;-170;2070;-148;-149;268;500;-60;16044
14:40:14.626;-150;-151;-167;-191;2070;-149;-144;-56;500;-60;16044
14:40:14.626;-147;-137;-150;-195;2037;-154;-146;71;500;-60;16044
14:40:14.626;-150;-138;-149;-192;1935;-153;-146;-431;540;-4;15968
14:40:14.626;-146;-132;-129;-179;1818;-151;-148;-304;540;-4;15968
14:40:14.626;-146;-126;-153;-166;1444;-151;-145;-431;540;-4;15968
14:40:14.626;-155;-142;-131;-192;1317;-151;-148;-304;540;-4;15968
14:40:14.626;-153;-148;-115;-214;1132;-153;-145;-177;540;-4;15968
14:40:14.626;-151;-142;-141;-223;1259;-151;-145;-50;540;-4;15968
14:40:14.626;-147;-143;-138;-233;1265;-152;-145;-317;540;-80;15908
14:40:14.626;-149;-140;-175;-219;1392;-150;-147;-190;540;-80;15908
14:40:14.626;-144;-133;-158;-202;1687;-150;-145;-63;540;-80;15908
14:40:14.626;-145;-140;-144;-201;1814;-150;-145;64;540;-80;15908
14:40:14.626;-149;-145;-157;-170;1948;-148;-144;-2;540;-80;15908
14:40:14.626;-153;-146;-153;-124;1951;-146;-148;125;540;-80;15908
14:40:14.642;-149;-137;-142;-163;1823;-149;-143;79;460;-72;15888
14:40:14.642;-148;-134;-126;-191;1925;-152;-147;152;460;-72;15888
14:40:14.642;-150;-144;-122;-210;2070;-148;-143;25;460;-72;15888
14:40:14.642;-149;-145;-134;-222;2070;-147;-147;152;460;-72;15888
14:40:14.642;-149;-138;-149;-175;2070;-148;-149;-68;460;-72;15888
14:40:14.642;-146;-135;-165;-143;1957;-151;-148;59;460;-72;15888
14:40:14.642;-147;-145;-129;-183;1923;-150;-145;-81;524;-24;15964
14:40:14.642;-148;-151;-132;-216;1796;-153;-149;46;524;-24;15964
14:40:14.642;-151;-149;-118;-180;1501;-152;-144;-81;524;-24;15964
14:40:14.642;-150;-147;-124;-163;1455;-153;-144;46;524;-24;15964
14:40:14.642;-149;-143;-102;-131;1633;-151;-146;-81;524;-24;15964
14:40:14.642;-149;-140;-141;-105;1646;-151;-146;46;524;-24;15964
14:40:14.642;-155;-149;-124;-139;1244;-152;-144;-23;552;4;15940
14:40:14.642;-150;-143;-171;-187;1371;-152;-148;104;552;4;15940
14:40:14.657;-147;-137;-204;-185;1498;-149;-145;231;552;4;15940
14:40:14.657;-148;-138;-169;-186;1625;-150;-144;358;552;4;15940
14:40:14.657;-150;-140;-189;-179;1648;-149;-145;157;552;4;15940
14:40:14.657;-149;-136;-142;-194;1775;-149;-146;284;552;4;15940
14:40:14.657;-150;-143;-121;-217;2070;-150;-142;157;464;-108;15944
14:40:14.657;-150;-138;-134;-221;2070;-149;-142;284;464;-108;15944
14:40:14.657;-148;-140;-153;-220;2070;-149;-144;-331;464;-108;15944
14:40:14.657;-150;-144;-149;-213;2070;-148;-147;-204;464;-108;15944
14:40:14.657;-152;-147;-152;-196;2070;-150;-143;2;464;-108;15944
14:40:14.657;-150;-143;-154;-144;2070;-151;-149;129;464;-108;15944
14:40:14.657;-147;-136;-142;-172;2070;-152;-145;118;524;-16;16016
14:40:14.657;-147;-140;-130;-198;2070;-151;-146;140;524;-16;16016
14:40:14.657;-147;-140;-142;-203;2070;-152;-152;224;524;-16;16016
14:40:14.657;-147;-135;-119;-189;1925;-153;-150;125;524;-16;16016
14:40:14.673;-146;-140;-133;-192;2070;-151;-147;82;524;-16;16016
14:40:14.673;-150;-142;-131;-211;1943;-153;-145;209;524;-16;16016
14:40:14.673;-152;-149;-113;-232;1707;-154;-145;82;472;0;15900
14:40:14.673;-157;-152;-157;-171;1834;-151;-146;75;472;0;15900
14:40:14.673;-145;-137;-153;-174;1719;-151;-143;-62;472;0;15900
14:40:14.673;-143;-137;-145;-161;1846;-150;-144;65;472;0;15900
14:40:14.673;-148;-140;-155;-108;2070;-151;-145;192;472;0;15900
14:40:14.673;-149;-136;-148;-149;2070;-150;-147;116;472;0;15900
14:40:14.673;-146;-137;-143;-188;2070;-150;-144;183;500;-16;16032
14:40:14.673;-147;-140;-153;-200;2070;-150;-146;7;500;-16;16032
14:40:14.673;-150;-139;-145;-188;2070;-150;-142;37;500;-16;16032
14:40:14.673;-147;-145;-148;-184;2070;-148;-145;360;500;-16;16032
14:40:14.673;-149;-151;-146;-191;2070;-149;-147;13;500;-16;16032
14:40:14.673;-151;-147;-105;-190;2070;-150;-145;61;500;-16;16032
14:40:14.673;-152;-144;-151;-185;2070;-153;-140;-381;516;-28;16012
14:40:14.673;-143;-140;-193;-182;2070;-151;-146;-254;516;-28;16012
14:40:14.673;-151;-140;-130;-201;1966;-152;-146;214;516;-28;16012
14:40:14.673;-151;-137;-133;-193;2070;-153;-145;87;516;-28;16012
14:40:14.688;-151;-140;-130;-201;1966;-152;-146;214;516;-28;16012
14:40:14.688;-149;-143;-135;-212;2021;-152;-146;95;516;-28;16012
14:40:14.688;-149;-136;-144;-180;1881;-152;-144;-32;508;-80;16016
14:40:14.688;-155;-130;-139;-188;1939;-152;-146;95;508;-80;16016
14:40:14.688;-144;-134;-144;-189;1816;-153;-146;65;508;-80;16016
14:40:14.688;-150;-142;-146;-179;1857;-151;-146;-17;508;-80;16016
14:40:14.688;-146;-139;-149;-176;1752;-151;-146;342;508;-80;16016
14:40:14.688;-147;-142;-132;-183;1879;-150;-144;215;508;-80;16016
14:40:14.688;-147;-142;-102;-192;2070;-149;-143;88;484;-88;16012
14:40:14.688;-145;-139;-114;-203;2070;-148;-143;215;484;-88;16012
14:40:14.688;-152;-147;-156;-197;2070;-151;-142;-267;484;-88;16012
14:40:14.688;-150;-141;-149;-202;2070;-148;-145;-140;484;-88;16012
14:40:14.704;-149;-144;-174;-186;2070;-149;-143;119;484;-88;16012
14:40:14.704;-150;-141;-181;-174;2070;-150;-146;246;484;-88;16012
14:40:14.704;-149;-144;-159;-197;2070;-149;-149;53;456;-64;15960
14:40:14.704;-151;-140;-156;-192;2070;-149;-146;8;456;-64;15960
14:40:14.704;-150;-142;-140;-205;2070;-153;-143;-390;456;-64;15960
14:40:14.704;-148;-144;-127;-180;2070;-153;-148;-263;456;-64;15960
14:40:14.704;-150;-141;-131;-174;2070;-153;-147;62;456;-64;15960
14:40:14.704;-151;-143;-141;-138;2070;-153;-144;189;456;-64;15960
14:40:14.704;-151;-145;-154;-135;2070;-153;-146;-312;536;-48;15848
14:40:14.704;-151;-145;-137;-186;2070;-153;-147;-185;536;-48;15848
14:40:14.704;-149;-146;-138;-195;1980;-152;-145;51;536;-48;15848
14:40:14.704;-151;-147;-119;-200;1937;-152;-145;178;536;-48;15848
14:40:14.704;-153;-147;-107;-211;1568;-151;-144;51;536;-48;15848
14:40:14.704;-143;-132;-149;-212;1695;-152;-146;127;536;-48;15848
14:40:14.704;-147;-134;-172;-220;1890;-152;-144;100;556;-36;15956
14:40:14.704;-146;-141;-174;-208;1950;-148;-148;227;556;-36;15956
14:40:14.704;-148;-139;-133;-183;2070;-146;-146;331;556;-36;15956
14:40:14.704;-149;-137;-150;-183;2070;-148;-143;31;556;-36;15956
14:40:14.704;-151;-147;-160;-183;2070;-146;-151;252;556;-36;15956
14:40:14.704;-153;-149;-132;-196;2070;-146;-147;335;556;-36;15956
14:40:14.720;-142;-132;-150;-202;2070;-148;-147;354;496;-80;16044
14:40:14.720;-144;-135;-173;-186;2070;-149;-143;336;496;-80;16044
14:40:14.720;-151;-147;-154;-194;2070;-152;-146;332;496;-80;16044
14:40:14.720;-148;-150;-118;-211;2070;-150;-146;-315;496;-80;16044
14:40:14.720;-150;-147;-132;-197;2070;-154;-144;-91;496;-80;16044
14:40:14.720;-147;-145;-155;-191;2070;-151;-149;36;496;-80;16044
14:40:14.720;-146;-139;-152;-216;2070;-154;-146;-202;536;-68;15984
14:40:14.720;-149;-141;-151;-123;1977;-154;-147;-75;536;-68;15984
14:40:14.720;-151;-136;-134;-125;1901;-154;-146;-64;536;-68;15984
14:40:14.720;-149;-136;-92;-156;1993;-154;-146;6;536;-68;15984
14:40:14.720;-154;-147;-130;-139;1801;-152;-146;133;536;-68;15984
14:40:14.720;-149;-141;-148;-102;1928;-151;-144;6;536;-68;15984
14:40:14.720;-148;-138;-138;-176;2070;-151;-147;-26;480;-28;16032
14:40:14.720;-150;-141;-163;-229;2070;-150;-149;-53;480;-28;16032
14:40:14.735;-147;-143;-124;-250;2070;-152;-142;-207;480;-28;16032
14:40:14.735;-149;-150;-150;-261;2070;-151;-149;-80;480;-28;16032
14:40:14.735;-150;-144;-172;-207;2070;-149;-147;395;480;-28;16032
14:40:14.735;-150;-139;-162;-139;2070;-148;-143;268;480;-28;16032
14:40:14.735;-151;-140;-171;-94;2070;-147;-148;9;496;-32;15912
14:40:14.735;-147;-135;-170;-97;2070;-150;-147;51;496;-32;15912
14:40:14.735;-147;-134;-146;-155;2070;-151;-141;-393;496;-32;15912
14:40:14.735;-149;-140;-141;-194;2070;-153;-149;-266;496;-32;15912
14:40:14.735;-152;-150;-134;-220;2070;-153;-146;-59;496;-32;15912
14:40:14.735;-149;-145;-127;-231;2070;-151;-150;68;496;-32;15912
14:40:14.735;-150;-136;-121;-236;2070;-153;-147;173;556;-56;15924
14:40:14.735;-145;-137;-125;-221;2027;-154;-145;17;556;-56;15924
14:40:14.735;-149;-147;-134;-185;2023;-152;-150;331;556;-56;15924
14:40:14.735;-154;-148;-157;-123;1896;-153;-148;250;556;-56;15924
14:40:14.751;-152;-145;-169;-163;2016;-153;-147;238;556;-56;15924
14:40:14.751;-149;-143;-148;-182;1879;-152;-145;339;556;-56;15924
14:40:14.751;-152;-139;-135;-193;1901;-152;-143;-237;556;-56;15924
14:40:14.751;-147;-140;-130;-209;2028;-150;-145;-110;556;-56;15924
14:40:14.751;-148;-139;-137;-213;2070;-151;-143;49;448;-32;15940
14:40:14.751;-147;-139;-143;-186;2070;-151;-148;176;448;-32;15940
14:40:14.751;-148;-140;-108;-202;2070;-151;-145;51;448;-32;15940
14:40:14.751;-151;-139;-126;-196;2070;-151;-145;349;448;-32;15940
14:40:14.766;-149;-142;-155;-165;2070;-152;-144;250;448;-32;15940
14:40:14.766;-152;-133;-179;-179;2070;-151;-145;91;448;-32;15940
14:40:14.766;-150;-149;-184;-197;2070;-152;-146;354;464;-16;15948
14:40:14.766;-150;-150;-149;-214;2070;-150;-146;227;464;-16;15948
14:40:14.766;-148;-140;-138;-190;2070;-152;-147;-131;464;-16;15948
14:40:14.766;-148;-145;-150;-209;2070;-153;-151;-189;464;-16;15948
14:40:14.766;-148;-140;-147;-170;2070;-153;-144;-424;464;-16;15948
14:40:14.766;-148;-135;-155;-209;2070;-154;-145;-297;464;-16;15948
14:40:14.766;-148;-140;-147;-170;2070;-153;-146;82;500;12;16036
14:40:14.766;-148;-129;-140;-185;2070;-152;-147;209;500;12;16036
14:40:14.766;-147;-139;-154;-198;1934;-153;-145;82;500;12;16036
14:40:14.766;-152;-153;-136;-207;2020;-152;-143;209;500;12;16036
14:40:14.766;-150;-147;-131;-161;1964;-152;-144;-197;500;12;16036
14:40:14.766;-150;-140;-134;-150;2037;-151;-147;-70;500;12;16036
14:40:14.766;-150;-140;-142;-115;2070;-152;-144;57;540;-80;16096
14:40:14.766;-152;-145;-132;-167;2070;-152;-148;184;540;-80;16096
14:40:14.782;-149;-143;-125;-185;2070;-151;-142;59;540;-80;16096
14:40:14.782;-150;-142;-174;-182;2070;-151;-146;381;540;-80;16096
14:40:14.782;-149;-141;-169;-169;2070;-148;-146;416;540;-80;16096
14:40:14.782;-148;-145;-161;-175;2070;-149;-141;412;540;-80;16096
14:40:14.782;-148;-139;-149;-175;2070;-149;-144;174;476;-120;16024
14:40:14.782;-148;-144;-136;-186;2070;-150;-148;216;476;-120;16024
14:40:14.782;-150;-147;-136;-179;2070;-151;-146;118;476;-120;16024
14:40:14.782;-149;-141;-135;-181;2070;-151;-149;220;476;-120;16024
14:40:14.782;-150;-141;-127;-190;2070;-150;-147;5;476;-120;16024
14:40:14.782;-149;-139;-119;-197;2070;-153;-142;-122;476;-120;16024
14:40:14.782;-154;-146;-118;-197;2070;-153;-151;318;456;4;15876
14:40:14.782;-147;-139;-167;-195;2070;-151;-146;252;456;4;15876
14:40:14.782;-149;-139;-168;-190;2070;-153;-147;136;456;4;15876
14:40:14.782;-150;-144;-140;-189;1981;-153;-145;118;456;4;15876
14:40:14.782;-147;-142;-130;-193;1929;-153;-145;-326;456;4;15876
14:40:14.782;-150;-142;-121;-197;2027;-152;-146;-199;456;4;15876
14:40:14.798;-147;-142;-137;-196;1961;-150;-149;-99;528;72;15964
14:40:14.798;-149;-141;-175;-195;1972;-148;-146;247;528;72;15964
14:40:14.798;-151;-140;-176;-195;2070;-147;-142;129;528;72;15964
14:40:14.798;-152;-140;-141;-193;2070;-152;-148;348;528;72;15964
14:40:14.798;-149;-137;-142;-184;2070;-148;-142;193;528;72;15964
14:40:14.798;-145;-137;-139;-184;2070;-150;-143;320;528;72;15964
14:40:14.798;-149;-140;-151;-184;2070;-147;-146;400;480;-32;16116
14:40:14.798;-149;-137;-144;-197;2070;-146;-143;-180;480;-32;16116
14:40:14.798;-150;-143;-137;-202;2070;-146;-143;-23;480;-32;16116
14:40:14.798;-149;-148;-142;-203;2070;-149;-147;-20;480;-32;16116
14:40:14.798;-147;-144;-133;-233;2070;-152;-144;57;480;-32;16116
14:40:14.798;-149;-149;-111;-284;2070;-153;-150;-31;480;-32;16116
14:40:14.798;-140;-120;-127;-300;2070;-153;-145;-140;496;28;16076
14:40:14.798;-146;-143;-157;-298;1946;-153;-147;315;496;28;16076
14:40:14.798;-140;-120;-129;-280;1838;-153;-142;-280;496;28;16076
14:40:14.798;-142;-122;-125;-153;1893;-154;-149;-153;496;28;16076
14:40:14.813;-148;-137;-162;-13;1887;-152;-143;-192;496;28;16076
14:40:14.813;-156;-155;-155;-70;2013;-152;-143;-65;496;28;16076
14:40:14.813;-152;-157;-147;-110;2070;-152;-146;227;496;-8;16112
14:40:14.813;-150;-147;-129;-171;2070;-152;-146;289;496;-8;16112
14:40:14.813;-152;-142;-148;-183;2070;-149;-146;372;496;-8;16112
14:40:14.813;-149;-131;-148;-116;2070;-147;-145;300;496;-8;16112
14:40:14.813;-150;-135;-183;-119;2070;-150;-143;-47;496;-8;16112
14:40:14.813;-151;-135;-177;-111;2070;-147;-146;80;496;-8;16112
14:40:14.813;-151;-140;-149;-124;2070;-150;-144;-324;500;-32;15960
14:40:14.813;-150;-146;-124;-156;2070;-151;-150;-197;500;-32;15960
14:40:14.813;-153;-146;-123;-175;2070;-151;-141;-2;500;-32;15960
14:40:14.813;-151;-146;-99;-180;2070;-148;-147;125;500;-32;15960
14:40:14.813;-151;-150;-123;-195;2070;-148;-146;-171;500;-32;15960
14:40:14.813;-146;-140;-172;-180;2070;-151;-147;-44;500;-32;15960
14:40:14.829;-148;-143;-189;-226;2070;-155;-146;-173;512;8;15888
14:40:14.829;-152;-146;-155;-239;2070;-154;-147;-46;512;8;15888
14:40:14.829;-151;-137;-170;-238;2070;-156;-146;-134;512;8;15888
14:40:14.829;-148;-141;-151;-202;2070;-152;-148;38;512;8;15888
14:40:14.829;-151;-148;-139;-189;2070;-151;-151;60;512;8;15888
14:40:14.829;-146;-142;-145;-197;1946;-152;-148;120;512;8;15888
14:40:14.829;-148;-148;-138;-196;2038;-152;-145;-113;492;-20;15944
14:40:14.829;-148;-144;-132;-193;2070;-151;-144;14;492;-20;15944
14:40:14.829;-147;-143;-130;-197;2070;-152;-146;-253;492;-20;15944
14:40:14.829;-149;-144;-136;-198;2070;-152;-146;-126;492;-20;15944
14:40:14.829;-149;-142;-138;-197;2070;-151;-143;-217;492;-20;15944
14:40:14.829;-150;-138;-144;-193;2070;-146;-145;368;492;-20;15944
14:40:14.829;-150;-136;-152;-195;2070;-147;-144;96;532;40;15828
14:40:14.829;-151;-134;-155;-192;2070;-148;-144;223;532;40;15828
14:40:14.845;-149;-132;-145;-176;2070;-151;-141;-215;532;40;15828
14:40:14.845;-147;-138;-137;-180;2070;-150;-150;-88;532;40;15828
14:40:14.845;-150;-141;-145;-189;2070;-152;-143;-104;532;40;15828
14:40:14.845;-152;-146;-133;-200;2070;-153;-147;334;532;40;15828
14:40:14.845;-150;-141;-142;-191;2070;-152;-146;-365;540;52;15936
14:40:14.845;-146;-134;-128;-213;2070;-154;-150;-238;540;52;15936
14:40:14.845;-149;-144;-148;-205;2070;-154;-144;-183;540;52;15936
14:40:14.845;-150;-146;-165;-197;2070;-153;-145;369;540;52;15936
14:40:14.845;-149;-146;-136;-180;2070;-154;-147;135;540;52;15936
14:40:14.845;-150;-146;-147;-164;2038;-153;-145;245;540;52;15936
14:40:14.845;-152;-150;-143;-178;1906;-154;-145;118;468;28;16080
14:40:14.845;-149;-148;-114;-195;2033;-150;-146;173;468;28;16080
14:40:14.845;-147;-141;-132;-186;2070;-150;-144;39;468;28;16080
14:40:14.845;-146;-140;-149;-185;2070;-152;-144;166;468;28;16080
14:40:14.845;-149;-147;-157;-190;2070;-151;-143;-275;468;28;16080
14:40:14.845;-149;-142;-150;-188;2070;-152;-148;-148;468;28;16080
14:40:14.861;-151;-138;-145;-201;2070;-150;-142;27;508;28;15856
14:40:14.861;-149;-144;-150;-212;2070;-149;-147;154;508;28;15856
14:40:14.861;-147;-143;-159;-199;2070;-148;-145;351;508;28;15856
14:40:14.861;-143;-145;-178;-210;2070;-150;-143;224;508;28;15856
14:40:14.861;-147;-150;-146;-148;2070;-152;-152;186;508;28;15856
14:40:14.861;-147;-142;-94;-117;2070;-152;-149;383;508;28;15856
14:40:14.861;-148;-133;-116;-166;2070;-155;-142;-160;544;68;15960
14:40:14.861;-153;-132;-117;-199;2070;-152;-143;-33;544;68;15960
14:40:14.861;-144;-120;-108;-187;2070;-152;-147;336;544;68;15960
14:40:14.861;-153;-127;-114;-200;2070;-152;-147;209;544;68;15960
14:40:14.861;-156;-145;-218;-202;2070;-155;-145;-229;544;68;15960
14:40:14.861;-153;-140;-162;-177;2070;-152;-149;-102;544;68;15960
14:40:14.861;-151;-147;-165;-175;2070;-151;-144;-263;584;32;15880
14:40:14.861;-152;-147;-167;-145;2070;-152;-145;-136;584;32;15880
14:40:14.876;-151;-146;-150;-159;2070;-153;-146;-288;584;32;15880
14:40:14.876;-150;-146;-164;-192;2070;-152;-148;-161;584;32;15880
14:40:14.876;-152;-146;-167;-204;2070;-151;-146;-34;584;32;15880
14:40:14.876;-148;-143;-142;-207;2070;-151;-144;-116;584;32;15880
14:40:14.876;-147;-138;-132;-192;2070;-148;-147;-13;536;60;15928
14:40:14.876;-148;-136;-127;-169;2070;-149;-144;107;536;60;15928
14:40:14.876;-148;-143;-138;-194;2070;-150;-143;-127;536;60;15928
14:40:14.876;-151;-137;-155;-207;2070;-150;-148;0;536;60;15928
14:40:14.876;-149;-140;-142;-188;2070;-148;-147;395;536;60;15928
14:40:14.876;-147;-145;-125;-161;2070;-153;-145;268;536;60;15928
14:40:14.876;-147;-148;-99;-240;2070;-150;-152;-173;440;12;15976
14:40:14.876;-150;-154;-85;-282;1943;-151;-150;-98;440;12;15976
14:40:14.876;-152;-148;-118;-297;1840;-150;-144;-115;440;12;15976
14:40:14.876;-148;-137;-151;-259;1601;-153;-147;12;440;12;15976
14:40:14.876;-151;-136;-184;-108;1663;-154;-147;55;440;12;15976
14:40:14.876;-149;-128;-179;9;1536;-154;-145;182;440;12;15976
14:40:14.876;-151;-133;-173;-127;1409;-152;-146;278;472;28;16020
14:40:14.876;-149;-141;-160;-170;1536;-154;-146;151;472;28;16020
14:40:14.891;-152;-145;-156;-151;1293;-154;-142;24;472;28;16020
14:40:14.891;-152;-146;-132;-166;1417;-153;-142;151;472;28;16020
14:40:14.891;-151;-150;-128;-171;1411;-152;-144;-210;472;28;16020
14:40:14.891;-152;-146;-136;-131;1538;-151;-146;-83;472;28;16020
14:40:14.891;-151;-145;-144;-204;1569;-151;-144;-5;524;8;15992
14:40:14.891;-144;-139;-183;-228;1930;-148;-146;122;524;8;15992
14:40:14.891;-145;-139;-139;-209;1765;-147;-143;77;524;8;15992
14:40:14.891;-149;-140;-139;-198;1892;-148;-144;204;524;8;15992
14:40:14.891;-147;-138;-126;-200;1912;-152;-141;-206;524;8;15992
14:40:14.891;-151;-142;-142;-131;2039;-154;-149;-79;524;8;15992
14:40:14.891;-152;-145;-143;-148;2070;-154;-144;77;512;-56;16104
14:40:14.891;-148;-141;-138;-184;2026;-153;-147;204;512;-56;16104
14:40:14.891;-147;-141;-119;-187;2070;-152;-146;87;512;-56;16104
14:40:14.891;-148;-138;-134;-191;2070;-152;-148;315;512;-56;16104
14:40:14.891;-150;-143;-141;-200;1671;-154;-145;188;512;-56;16104
14:40:14.891;-147;-146;-128;-202;1566;-153;-146;315;512;-56;16104
14:40:14.907;-152;-145;-137;-205;1719;-153;-148;188;548;24;15972
14:40:14.907;-146;-144;-180;-208;1592;-154;-145;266;548;24;15972
14:40:14.907;-149;-143;-174;-207;1471;-154;-145;-268;548;24;15972
14:40:14.907;-150;-142;-130;-204;1598;-152;-147;-141;548;24;15972
14:40:14.907;-149;-138;-123;-207;1474;-153;-145;94;548;24;15972
14:40:14.907;-155;-144;-149;-183;1470;-151;-148;221;548;24;15972
14:40:14.907;-152;-140;-152;-173;1679;-149;-145;94;472;52;15952
14:40:14.907;-149;-138;-166;-194;1806;-150;-144;221;472;52;15952
14:40:14.923;-150;-143;-171;-203;1946;-154;-143;94;472;52;15952
14:40:14.923;-151;-141;-153;-180;2070;-150;-145;92;472;52;15952
14:40:14.923;-150;-143;-162;-181;2070;-147;-143;-54;472;52;15952
14:40:14.923;-149;-144;-150;-184;2070;-150;-145;73;472;52;15952
14:40:14.923;-146;-142;-133;-166;2070;-147;-147;-7;560;-32;16064
14:40:14.923;-149;-144;-103;-164;2070;-148;-146;99;560;-32;16064
14:40:14.923;-149;-141;-128;-177;2070;-152;-147;-25;560;-32;16064
14:40:14.923;-151;-143;-146;-181;2009;-154;-147;-106;560;-32;16064
14:40:14.923;-152;-147;-137;-194;1688;-156;-144;-233;560;-32;16064
14:40:14.923;-148;-148;-144;-195;1561;-152;-147;-106;560;-32;16064
14:40:14.923;-154;-146;-162;-201;1713;-152;-148;21;496;-32;15992
14:40:14.923;-149;-142;-152;-194;1586;-154;-147;148;496;-32;15992
14:40:14.938;-147;-140;-143;-195;1225;-153;-142;21;496;-32;15992
14:40:14.938;-147;-139;-118;-209;1346;-153;-143;148;496;-32;15992
14:40:14.938;-145;-138;-115;-217;1313;-154;-145;-279;496;-32;15992
14:40:14.938;-147;-142;-145;-208;1257;-153;-146;-152;496;-32;15992
14:40:14.938;-156;-146;-136;-190;1450;-153;-146;-25;524;-4;15892
14:40:14.938;-148;-133;-149;-173;1546;-151;-145;102;524;-4;15892
14:40:14.938;-152;-135;-198;-189;1714;-152;-143;81;524;-4;15892
14:40:14.938;-155;-145;-180;-181;1841;-150;-141;208;524;-4;15892
14:40:14.938;-151;-145;-166;-182;1979;-149;-144;81;524;-4;15892
14:40:14.938;-149;-147;-150;-178;2066;-149;-145;208;524;-4;15892
14:40:14.938;-154;-144;-134;-158;2009;-153;-144;257;508;-48;15880
14:40:14.938;-145;-135;-135;-197;2070;-151;-148;141;508;-48;15880
14:40:14.938;-151;-137;-137;-204;2070;-148;-145;371;508;-48;15880
14:40:14.938;-147;-140;-99;-199;2070;-151;-143;244;508;-48;15880
14:40:14.938;-147;-142;-121;-192;2070;-153;-150;344;508;-48;15880
14:40:14.938;-147;-142;-165;-151;1930;-151;-148;248;508;-48;15880
14:40:14.954;-150;-134;-152;-156;2039;-154;-147;179;532;-20;15928
14:40:14.954;-153;-140;-168;-195;1667;-153;-145;279;532;-20;15928
14:40:14.954;-149;-148;-162;-188;1823;-152;-146;199;532;-20;15928
14:40:14.954;-149;-147;-155;-149;1865;-152;-147;326;532;-20;15928
14:40:14.954;-144;-140;-139;-181;1654;-150;-145;199;532;-20;15928
14:40:14.954;-148;-140;-131;-201;1558;-152;-148;284;532;-20;15928
14:40:14.954;-144;-145;-129;-216;2036;-150;-146;235;552;-76;15996
14:40:14.954;-149;-146;-135;-243;2070;-151;-143;351;552;-76;15996
14:40:14.954;-146;-142;-117;-279;2070;-151;-146;212;552;-76;15996
14:40:14.954;-149;-148;-102;-302;2070;-149;-146;339;552;-76;15996
14:40:14.954;-147;-136;-105;-321;2070;-149;-148;104;552;-76;15996
14:40:14.954;-148;-127;-139;-240;2070;-150;-145;45;552;-76;15996
14:40:14.954;-149;-125;-154;-94;2070;-149;-143;172;480;12;16112
14:40:14.954;-152;-142;-152;-32;2070;-151;-148;180;480;12;16112
14:40:14.954;-155;-140;-178;-46;2070;-151;-142;-72;480;12;16112
14:40:14.954;-157;-152;-190;-68;2070;-149;-144;55;480;12;16112
14:40:14.970;-147;-145;-141;-237;2070;-152;-144;-72;480;12;16112
14:40:14.970;-149;-137;-148;-147;2070;-153;-146;55;480;12;16112
14:40:14.970;-147;-145;-141;-237;2070;-152;-148;221;572;-64;16036
14:40:14.970;-154;-149;-156;-246;2070;-153;-149;346;572;-64;16036
14:40:14.970;-151;-148;-154;-256;1966;-152;-147;-117;572;-64;16036
14:40:14.970;-152;-149;-150;-236;1839;-154;-145;10;572;-64;16036
14:40:14.970;-149;-140;-148;-186;1637;-155;-144;-117;572;-64;16036
14:40:14.970;-150;-143;-141;-103;1725;-154;-145;3;572;-64;16036
14:40:14.970;-146;-140;-133;-122;1572;-152;-145;130;488;-56;15920
14:40:14.970;-146;-136;-128;-179;1699;-153;-144;147;488;-56;15920
14:40:14.970;-147;-142;-140;-194;1987;-152;-149;274;488;-56;15920
14:40:14.970;-150;-143;-157;-203;1860;-149;-148;277;488;-56;15920
14:40:14.970;-149;-141;-135;-198;1957;-151;-144;-39;488;-56;15920
14:40:14.970;-147;-137;-129;-191;2070;-150;-143;88;488;-56;15920
14:40:14.970;-151;-145;-160;-222;2070;-148;-144;-253;568;-36;15968
14:40:14.970;-151;-149;-148;-184;2070;-148;-149;-126;568;-36;15968
14:40:14.986;-151;-145;-160;-222;2070;-148;-146;349;568;-36;15968
14:40:14.986;-147;-141;-164;-237;2070;-150;-145;388;568;-36;15968
14:40:14.986;-148;-144;-150;-256;2055;-154;-143;-280;568;-36;15968
14:40:14.986;-148;-145;-139;-243;2060;-153;-146;-153;568;-36;15968
14:40:14.986;-148;-141;-141;-221;1933;-152;-145;-280;568;-36;15968
14:40:14.986;-150;-140;-137;-123;1913;-154;-148;-153;568;-36;15968
14:40:14.986;-149;-138;-127;-100;1992;-153;-148;-80;580;-36;15880
14:40:14.986;-150;-141;-104;-140;1812;-152;-148;47;580;-36;15880
14:40:14.986;-148;-139;-133;-167;1546;-153;-145;-39;580;-36;15880
14:40:14.986;-149;-143;-152;-184;1521;-153;-145;88;580;-36;15880
14:40:14.986;-148;-144;-142;-196;1404;-153;-146;-321;580;-36;15880
14:40:14.986;-149;-142;-131;-206;1531;-151;-146;-194;580;-36;15880
14:40:14.986;-151;-147;-139;-209;1554;-151;-146;78;556;-64;16028
14:40:14.986;-156;-142;-158;-210;1681;-151;-147;205;556;-64;16028
14:40:14.986;-150;-142;-131;-203;1916;-150;-143;78;556;-64;16028
14:40:14.986;-150;-140;-165;-192;2043;-151;-143;205;556;-64;16028
14:40:15.001;-148;-138;-154;-167;2070;-150;-143;-333;556;-64;16028
14:40:15.001;-144;-136;-184;-189;2070;-149;-146;-206;556;-64;16028
14:40:15.001;-146;-134;-161;-195;2070;-149;-144;107;540;-32;16096
14:40:15.001;-150;-124;-147;-177;2070;-149;-149;234;540;-32;16096
14:40:15.001;-147;-135;-143;-188;2070;-150;-148;369;540;-32;16096
14:40:15.001;-150;-149;-116;-193;2070;-151;-142;242;540;-32;16096
14:40:15.001;-152;-151;-138;-183;2070;-151;-152;295;540;-32;16096
14:40:15.001;-148;-139;-141;-176;1853;-153;-146;242;540;-32;16096
14:40:15.001;-147;-140;-133;-186;1845;-155;-146;124;488;-28;15888
14:40:15.001;-154;-147;-150;-193;1741;-153;-144;230;488;-28;15888
14:40:15.001;-149;-153;-159;-175;1620;-153;-145;-408;488;-28;15888
14:40:15.001;-151;-146;-170;-166;1747;-153;-146;-281;488;-28;15888
14:40:15.001;-146;-143;-149;-181;1600;-153;-144;-154;488;-28;15888
14:40:15.001;-147;-143;-125;-196;1497;-152;-145;-27;488;-28;15888
14:40:15.001;-147;-143;-119;-201;1274;-156;-143;-154;544;8;15920
14:40:15.001;-151;-142;-134;-212;1401;-151;-147;-27;544;8;15920
14:40:15.017;-154;-142;-153;-204;1623;-152;-143;80;544;8;15920
14:40:15.017;-149;-145;-154;-190;1750;-150;-146;207;544;8;15920
14:40:15.017;-149;-141;-141;-193;2070;-147;-146;323;544;8;15920
14:40:15.017;-147;-142;-142;-195;2064;-148;-143;196;544;8;15920
14:40:15.017;-149;-142;-132;-215;2070;-149;-152;281;516;12;15988
14:40:15.017;-150;-137;-127;-228;2070;-148;-148;282;516;12;15988
14:40:15.017;-151;-139;-152;-175;2070;-150;-146;323;516;12;15988
14:40:15.017;-150;-139;-145;-184;2070;-150;-143;341;516;12;15988
14:40:15.017;-154;-148;-124;-200;2070;-151;-146;336;516;12;15988
14:40:15.017;-146;-134;-162;-236;2070;-153;-147;-257;516;12;15988
14:40:15.017;-143;-138;-178;-170;2070;-151;-144;-132;552;-44;15948
14:40:15.017;-147;-129;-172;-114;2069;-151;-149;167;552;-44;15948
14:40:15.017;-144;-128;-100;-123;2070;-152;-148;-80;552;-44;15948
14:40:15.017;-150;-135;-133;-164;1943;-154;-149;47;552;-44;15948
14:40:15.032;-151;-144;-168;-187;1675;-153;-146;-80;552;-44;15948
14:40:15.032;-149;-142;-134;-187;1548;-154;-147;-58;552;-44;15948
14:40:15.032;-153;-141;-148;-180;1562;-151;-147;284;500;-108;15980
14:40:15.032;-154;-151;-160;-197;1508;-151;-147;157;500;-108;15980
14:40:15.032;-153;-149;-147;-173;1720;-149;-149;30;500;-108;15980
14:40:15.032;-150;-146;-142;-136;1703;-152;-148;113;500;-108;15980
14:40:15.032;-149;-138;-151;-154;1833;-151;-144;84;500;-108;15980
14:40:15.032;-151;-141;-149;-169;1960;-150;-147;211;500;-108;15980
14:40:15.032;-150;-143;-149;-192;2070;-147;-146;352;540;-96;16044
14:40:15.032;-152;-143;-137;-190;2070;-150;-143;250;540;-96;16044
14:40:15.032;-150;-143;-149;-192;2070;-147;-146;352;540;-96;16044
14:40:15.032;-148;-142;-139;-198;2070;-151;-145;222;540;-96;16044
14:40:15.048;-146;-139;-137;-198;2070;-148;-144;-38;540;-96;16044
14:40:15.048;-148;-141;-138;-207;2070;-152;-145;89;540;-96;16044
14:40:15.048;-148;-144;-137;-218;2070;-151;-147;49;504;-16;15988
14:40:15.048;-148;-149;-122;-214;2070;-153;-147;293;504;-16;15988
14:40:15.048;-148;-149;-148;-205;1836;-151;-143;166;504;-16;15988
14:40:15.048;-150;-150;-143;-225;1709;-153;-145;259;504;-16;15988
14:40:15.048;-150;-145;-140;-248;1625;-153;-146;74;504;-16;15988
14:40:15.048;-146;-141;-130;-261;1498;-154;-148;-53;504;-16;15988
14:40:15.048;-150;-147;-150;-287;1266;-154;-146;-74;508;-68;15968
14:40:15.048;-149;-143;-140;-209;1374;-153;-147;53;508;-68;15968
14:40:15.048;-155;-149;-146;-121;1574;-151;-144;-51;508;-68;15968
14:40:15.048;-153;-141;-172;-11;1579;-150;-146;76;508;-68;15968
14:40:15.048;-155;-149;-171;-115;1683;-150;-142;-297;508;-68;15968
14:40:15.048;-152;-145;-151;-150;1810;-150;-148;-170;508;-68;15968
14:40:15.048;-147;-137;-136;-157;2070;-148;-141;-43;496;-92;15868
14:40:15.048;-148;-135;-140;-149;2070;-149;-145;84;496;-92;15868
14:40:15.048;-148;-140;-147;-157;2070;-151;-146;295;496;-92;15868
14:40:15.048;-151;-145;-124;-179;2070;-148;-144;331;496;-92;15868
14:40:15.063;-147;-144;-126;-184;2070;-148;-146;326;496;-92;15868
14:40:15.063;-148;-137;-149;-186;2070;-151;-145;-280;496;-92;15868
14:40:15.063;-145;-130;-130;-223;2070;-151;-143;-55;532;-12;16016
14:40:15.063;-146;-137;-153;-248;2070;-151;-145;72;532;-12;16016
14:40:15.063;-147;-143;-157;-225;1943;-157;-146;-55;532;-12;16016
14:40:15.063;-151;-146;-183;-234;1816;-153;-148;-182;532;-12;16016
14:40:15.063;-152;-141;-128;-198;1639;-153;-143;-309;532;-12;16016
14:40:15.063;-146;-137;-147;-121;1766;-151;-147;-182;532;-12;16016
14:40:15.063;-149;-142;-145;-170;1683;-149;-146;-136;560;16;15984
14:40:15.063;-153;-148;-158;-183;1668;-151;-146;265;560;16;15984
14:40:15.063;-153;-144;-145;-132;1588;-152;-146;109;560;16;15984
14:40:15.063;-156;-145;-131;-134;1660;-152;-149;120;560;16;15984
14:40:15.063;-152;-139;-146;-169;1894;-150;-143;-7;560;16;15984
14:40:15.063;-148;-136;-140;-185;2021;-150;-146;120;560;16;15984
14:40:15.063;-147;-143;-148;-193;2070;-148;-146;341;520;-64;15900
14:40:15.063;-147;-139;-137;-198;2070;-149;-146;332;520;-64;15900
14:40:15.079;-148;-140;-142;-195;2070;-150;-141;-313;520;-64;15900
14:40:15.079;-146;-138;-131;-190;2070;-147;-147;-186;520;-64;15900
14:40:15.079;-149;-141;-113;-178;2070;-148;-146;276;520;-64;15900
14:40:15.079;-149;-140;-149;-185;2070;-148;-141;350;520;-64;15900
14:40:15.079;-154;-148;-132;-203;2070;-152;-143;-317;436;-24;15932
14:40:15.079;-157;-149;-143;-220;2070;-152;-147;-190;436;-24;15932
14:40:15.079;-156;-152;-127;-213;2070;-152;-142;-102;436;-24;15932
14:40:15.079;-145;-140;-182;-242;2070;-153;-147;318;436;-24;15932
14:40:15.079;-146;-145;-178;-235;2070;-152;-146;11;436;-24;15932
14:40:15.079;-146;-140;-160;-216;1943;-154;-147;138;436;-24;15932
14:40:15.079;-147;-148;-146;-186;1682;-154;-146;11;556;28;15964
14:40:15.079;-144;-144;-95;-158;1629;-155;-147;-4;556;28;15964
14:40:15.079;-140;-131;-108;-218;1499;-152;-147;123;556;28;15964
14:40:15.079;-149;-133;-164;-222;1626;-151;-144;-4;556;28;15964
14:40:15.079;-154;-139;-168;-215;1864;-149;-147;-131;556;28;15964
14:40:15.079;-153;-142;-168;-139;1746;-150;-149;-126;556;28;15964
14:40:15.095;-149;-140;-155;-169;1864;-149;-141;23;512;56;15964
14:40:15.095;-149;-139;-136;-130;1966;-152;-147;150;512;56;15964
14:40:15.095;-154;-141;-139;-91;2070;-148;-140;-105;512;56;15964
14:40:15.095;-148;-141;-130;-139;2070;-148;-147;22;512;56;15964
14:40:15.095;-150;-143;-101;-133;2070;-150;-154;-147;512;56;15964
14:40:15.095;-151;-141;-152;-168;2070;-151;-150;-84;512;56;15964
14:40:15.095;-152;-143;-187;-185;2070;-152;-141;-347;560;40;16032
14:40:15.095;-147;-143;-159;-189;2070;-149;-146;-220;560;40;16032
14:40:15.095;-150;-148;-161;-179;2070;-152;-146;152;560;40;16032
14:40:15.095;-148;-146;-131;-193;2070;-151;-145;212;560;40;16032
14:40:15.095;-148;-145;-101;-204;2070;-154;-145;-417;560;40;16032
14:40:15.095;-148;-152;-137;-208;2070;-153;-148;-290;560;40;16032
14:40:15.095;-147;-144;-146;-209;1864;-153;-143;-163;468;76;15960
14:40:15.095;-148;-141;-155;-251;1879;-153;-148;-36;468;76;15960
14:40:15.110;-151;-137;-156;-240;2006;-151;-147;-10;468;76;15960
14:40:15.110;-149;-130;-184;-214;2070;-153;-145;117;468;76;15960
14:40:15.110;-147;-134;-171;-176;1966;-154;-145;-251;468;76;15960
14:40:15.110;-149;-143;-137;-182;2070;-149;-146;-124;468;76;15960
14:40:15.110;-160;-155;-138;-223;2070;-150;-141;-45;520;64;16116
14:40:15.110;-147;-131;-144;-189;2070;-147;-141;353;520;64;16116
14:40:15.110;-146;-121;-121;-156;2070;-150;-143;-139;520;64;16116
14:40:15.110;-149;-136;-160;-131;2070;-149;-149;-88;520;64;16116
14:40:15.110;-156;-142;-155;-93;2070;-151;-142;8;520;64;16116
14:40:15.110;-151;-141;-142;-124;2070;-150;-148;301;520;64;16116
14:40:15.110;-153;-142;-133;-172;2070;-149;-141;-69;536;44;16040
14:40:15.110;-147;-142;-138;-188;2070;-152;-147;58;536;44;16040
14:40:15.110;-148;-142;-133;-193;2070;-149;-152;151;536;44;16040
14:40:15.110;-145;-142;-144;-196;2037;-153;-150;161;536;44;16040
14:40:15.126;-150;-148;-119;-186;2070;-151;-142;-203;536;44;16040
14:40:15.126;-149;-146;-151;-191;1943;-154;-144;-76;536;44;16040
14:40:15.126;-149;-142;-166;-198;1734;-155;-146;-203;552;68;15988
14:40:15.126;-154;-146;-133;-194;1607;-154;-147;-76;552;68;15988
14:40:15.126;-149;-144;-145;-198;1560;-153;-140;-517;552;68;15988
14:40:15.126;-147;-144;-136;-199;1687;-152;-144;-390;552;68;15988
14:40:15.126;-147;-143;-138;-198;1928;-153;-146;-263;552;68;15988
14:40:15.126;-148;-145;-129;-195;1801;-152;-149;-136;552;68;15988
14:40:15.126;-149;-145;-153;-199;1788;-154;-143;-267;556;-60;16036
14:40:15.126;-147;-144;-143;-196;1915;-152;-148;-140;556;-60;16036
14:40:15.126;-150;-142;-129;-193;2070;-151;-142;-13;556;-60;16036
14:40:15.126;-147;-139;-140;-202;2070;-147;-147;114;556;-60;16036
14:40:15.126;-148;-140;-149;-202;2070;-148;-153;-68;556;-60;16036
14:40:15.126;-149;-143;-152;-230;2070;-150;-150;-93;556;-60;16036
14:40:15.126;-149;-139;-149;-227;2070;-148;-139;20;504;32;16056
14:40:15.126;-150;-141;-174;-212;2070;-150;-145;289;504;32;16056
14:40:15.141;-147;-142;-142;-130;1913;-152;-147;282;504;32;16056
14:40:15.141;-151;-145;-141;-120;2040;-151;-145;248;504;32;16056
14:40:15.141;-147;-142;-142;-130;1913;-152;-147;282;504;32;16056
14:40:15.141;-148;-135;-107;-175;2070;-154;-146;155;504;32;16056
14:40:15.141;-146;-137;-153;-202;1722;-152;-143;28;544;12;16032
14:40:15.141;-151;-145;-148;-220;1618;-151;-145;155;544;12;16032
14:40:15.141;-151;-145;-132;-203;1438;-153;-146;28;544;12;16032
14:40:15.141;-150;-146;-146;-211;1311;-153;-148;-99;544;12;16032
14:40:15.141;-151;-145;-142;-207;1125;-152;-146;28;544;12;16032
14:40:15.141;-152;-142;-137;-138;1252;-153;-146;-99;544;12;16032
14:40:15.141;-149;-141;-132;-144;1821;-151;-144;-161;576;52;16092
14:40:15.141;-148;-139;-133;-194;1924;-149;-144;-34;576;52;16092
14:40:15.141;-150;-139;-159;-198;1712;-151;-143;-161;576;52;16092
14:40:15.141;-149;-139;-169;-198;1839;-153;-149;-45;576;52;16092
14:40:15.157;-155;-138;-162;-193;2070;-152;-142;58;576;52;16092
14:40:15.157;-150;-142;-154;-186;2070;-149;-147;185;576;52;16092
14:40:15.157;-147;-140;-125;-139;2070;-149;-146;363;532;72;15936
14:40:15.157;-147;-140;-129;-188;2070;-147;-147;320;532;72;15936
14:40:15.157;-149;-140;-116;-247;2070;-153;-143;-430;532;72;15936
14:40:15.157;-149;-144;-112;-240;2070;-151;-146;-303;532;72;15936
14:40:15.157;-145;-142;-83;-210;2070;-151;-147;-31;532;72;15936
14:40:15.157;-149;-137;-141;-222;2070;-152;-142;96;532;72;15936
14:40:15.157;-148;-147;-196;-215;1860;-153;-147;223;460;40;15964
14:40:15.157;-151;-149;-185;-161;1987;-153;-147;96;460;40;15964
14:40:15.157;-150;-144;-172;-126;1860;-153;-144;-31;460;40;15964
14:40:15.157;-150;-137;-154;-125;1733;-154;-149;96;460;40;15964
14:40:15.157;-150;-142;-150;-133;1877;-152;-147;-31;460;40;15964
14:40:15.157;-151;-142;-141;-126;1750;-154;-147;39;460;40;15964
14:40:15.173;-158;-152;-123;-159;1543;-153;-145;-88;532;-24;16096
14:40:15.173;-152;-142;-141;-201;1669;-153;-148;-211;532;-24;16096
14:40:15.173;-149;-139;-156;-204;2070;-150;-146;-84;532;-24;16096
14:40:15.173;-151;-145;-173;-178;2070;-150;-144;43;532;-24;16096
14:40:15.173;-149;-145;-155;-166;2070;-150;-148;-86;532;-24;16096
14:40:15.173;-147;-138;-153;-162;2070;-149;-147;41;532;-24;16096
14:40:15.173;-149;-142;-131;-219;2070;-152;-144;-29;520;4;15936
14:40:15.173;-151;-137;-113;-243;2070;-152;-146;251;520;4;15936
14:40:15.173;-144;-132;-121;-195;2070;-150;-146;288;520;4;15936
14:40:15.173;-148;-137;-143;-168;2070;-149;-143;44;520;4;15936
14:40:15.173;-150;-135;-137;-159;2070;-150;-153;-93;520;4;15936
14:40:15.173;-154;-140;-144;-146;2070;-154;-150;-34;520;4;15936
14:40:15.173;-142;-136;-135;-189;2070;-152;-143;-194;504;20;15988
14:40:15.173;-150;-153;-147;-206;2070;-154;-146;-67;504;20;15988
14:40:15.189;-158;-153;-152;-240;2070;-154;-146;91;504;20;15988
14:40:15.189;-148;-143;-174;-283;2070;-153;-144;168;504;20;15988
14:40:15.189;-148;-147;-163;-243;1903;-153;-148;295;504;20;15988
14:40:15.189;-143;-135;-148;-170;2030;-153;-147;168;504;20;15988
14:40:15.189;-147;-137;-149;-128;2070;-152;-144;-46;516;4;15996
14:40:15.189;-153;-138;-135;-79;2070;-151;-146;81;516;4;15996
14:40:15.204;-159;-143;-97;-57;2070;-154;-145;-217;516;4;15996
14:40:15.204;-153;-140;-171;-184;2070;-152;-148;-114;516;4;15996
14:40:15.204;-153;-147;-180;-206;2070;-151;-147;348;516;4;15996
14:40:15.204;-150;-143;-184;-206;2070;-150;-144;221;516;4;15996
14:40:15.204;-150;-148;-160;-202;2070;-150;-142;-146;508;24;15948
14:40:15.204;-148;-149;-146;-189;2070;-149;-143;-19;508;24;15948
14:40:15.204;-146;-141;-135;-180;2070;-152;-141;-244;508;24;15948
14:40:15.204;-146;-140;-145;-176;2070;-151;-150;-178;508;24;15948
14:40:15.204;-147;-141;-143;-169;2070;-151;-148;307;508;24;15948
14:40:15.204;-148;-147;-134;-188;2070;-154;-146;180;508;24;15948
14:40:15.204;-149;-142;-139;-198;2070;-152;-141;-234;524;28;15916
14:40:15.204;-150;-134;-137;-196;2070;-152;-146;-107;524;28;15916
14:40:15.204;-148;-128;-119;-200;2070;-154;-147;33;524;28;15916
14:40:15.204;-150;-147;-126;-217;2070;-153;-146;160;524;28;15916
14:40:15.220;-151;-155;-132;-212;2070;-154;-147;-37;524;28;15916
14:40:15.220;-148;-142;-147;-199;2070;-154;-147;90;524;28;15916
14:40:15.220;-154;-141;-154;-193;2070;-154;-144;-336;500;-84;15932
14:40:15.220;-148;-128;-145;-169;2070;-153;-148;-209;500;-84;15932
14:40:15.220;-153;-141;-150;-176;2070;-152;-148;-82;500;-84;15932
14:40:15.220;-150;-145;-170;-175;2070;-152;-145;45;500;-84;15932
14:40:15.220;-149;-140;-165;-175;2070;-149;-146;221;500;-84;15932
14:40:15.220;-147;-139;-148;-185;2070;-151;-146;307;500;-84;15932
14:40:15.220;-148;-141;-133;-192;2070;-152;-144;121;460;-40;15996
14:40:15.220;-154;-142;-140;-194;2070;-151;-146;200;460;-40;15996
14:40:15.220;-145;-146;-150;-192;2070;-151;-143;70;460;-40;15996
14:40:15.220;-150;-142;-129;-187;2070;-147;-147;197;460;-40;15996
14:40:15.220;-145;-136;-114;-184;2070;-150;-148;391;460;-40;15996
14:40:15.220;-146;-136;-120;-175;2070;-150;-143;354;460;-40;15996
14:40:15.220;-151;-145;-151;-180;2070;-152;-145;-353;460;-40;15996
14:40:15.220;-153;-149;-160;-191;2070;-154;-147;-226;460;-40;15996
14:40:15.235;-152;-148;-161;-191;2070;-150;-146;8;492;-12;16020
14:40:15.235;-147;-143;-137;-188;2070;-154;-147;96;492;-12;16020
14:40:15.235;-152;-138;-157;-193;2070;-152;-148;157;492;-12;16020
14:40:15.235;-147;-144;-159;-190;2070;-153;-145;-43;492;-12;16020
14:40:15.235;-149;-141;-144;-189;2070;-154;-151;306;492;-12;16020
14:40:15.235;-147;-143;-133;-203;2070;-151;-150;273;492;-12;16020
14:40:15.235;-149;-147;-147;-227;2070;-152;-145;-218;500;-48;16000
14:40:15.235;-150;-150;-136;-271;2070;-153;-145;-91;500;-48;16000
14:40:15.235;-147;-143;-141;-280;2070;-153;-146;180;500;-48;16000
14:40:15.235;-149;-140;-141;-268;2070;-151;-148;307;500;-48;16000
14:40:15.235;-147;-133;-125;-208;2070;-149;-151;230;500;-48;16000
14:40:15.235;-149;-138;-130;-90;2070;-148;-147;125;500;-48;16000
14:40:15.235;-149;-145;-118;-144;2070;-148;-142;43;504;28;16000
14:40:15.235;-152;-146;-168;-174;2070;-149;-149;266;504;28;16000
14:40:15.235;-155;-150;-156;-117;2070;-152;-143;-41;504;28;16000
14:40:15.235;-150;-142;-162;-74;2070;-152;-145;86;504;28;16000
14:40:15.251;-152;-142;-158;-74;2070;-150;-147;225;504;28;16000
14:40:15.251;-149;-130;-144;-140;2070;-151;-147;98;504;28;16000
14:40:15.251;-144;-134;-102;-212;2070;-151;-149;-115;508;-100;16044
14:40:15.251;-149;-141;-132;-220;2070;-153;-149;12;508;-100;16044
14:40:15.251;-152;-148;-158;-199;2070;-155;-146;-97;508;-100;16044
14:40:15.251;-152;-146;-173;-150;2019;-153;-150;-27;508;-100;16044
14:40:15.251;-148;-140;-177;-165;1835;-153;-145;-154;508;-100;16044
14:40:15.251;-148;-142;-144;-173;1962;-153;-147;-27;508;-100;16044
14:40:15.251;-148;-140;-129;-187;2070;-153;-152;294;492;0;15856
14:40:15.251;-145;-139;-101;-210;1943;-152;-146;224;492;0;15856
14:40:15.251;-146;-144;-135;-237;2022;-154;-143;-198;492;0;15856
14:40:15.251;-153;-153;-156;-271;2070;-153;-145;-71;492;0;15856
14:40:15.251;-149;-142;-168;-263;2070;-151;-145;233;492;0;15856
14:40:15.251;-147;-140;-144;-238;2070;-151;-148;106;492;0;15856
14:40:15.251;-151;-139;-160;-188;2070;-150;-145;316;556;-32;15856
14:40:15.251;-148;-134;-160;-99;2070;-150;-144;189;556;-32;15856
14:40:15.251;-152;-140;-129;-67;2070;-147;-151;240;556;-32;15856
14:40:15.266;-154;-147;-137;-104;2070;-149;-148;308;556;-32;15856
14:40:15.266;-152;-146;-154;-168;2070;-149;-148;279;556;-32;15856
14:40:15.266;-145;-145;-146;-201;2070;-151;-144;214;556;-32;15856
14:40:15.266;-147;-142;-137;-211;2070;-152;-146;200;528;-48;15896
14:40:15.266;-148;-144;-146;-211;2070;-152;-148;305;528;-48;15896
14:40:15.266;-150;-143;-143;-207;2070;-153;-144;-85;528;-48;15896
14:40:15.266;-149;-143;-127;-182;2070;-154;-150;42;528;-48;15896
14:40:15.266;-147;-145;-124;-211;2070;-152;-148;54;528;-48;15896
14:40:15.266;-149;-144;-148;-234;2070;-155;-145;238;528;-48;15896
14:40:15.266;-148;-139;-154;-242;2070;-154;-145;-341;456;-72;15916
14:40:15.266;-149;-141;-146;-219;2070;-151;-148;-214;456;-72;15916
14:40:15.266;-151;-145;-163;-169;2070;-152;-148;-48;456;-72;15916
14:40:15.266;-152;-151;-149;-123;2070;-150;-148;79;456;-72;15916
14:40:15.266;-150;-143;-149;-128;2070;-151;-146;165;456;-72;15916
14:40:15.266;-151;-140;-144;-187;2070;-150;-147;81;456;-72;15916
14:40:15.266;-149;-143;-116;-236;2070;-151;-144;33;488;-4;15988
14:40:15.266;-149;-139;-132;-249;2070;-150;-148;266;488;-4;15988
14:40:15.282;-151;-144;-136;-224;2070;-149;-146;338;488;-4;15988
14:40:15.282;-153;-143;-131;-191;2070;-151;-146;298;488;-4;15988
14:40:15.282;-149;-136;-152;-177;2070;-150;-141;31;488;-4;15988
14:40:15.282;-146;-137;-167;-97;2070;-149;-147;158;488;-4;15988
14:40:15.282;-148;-139;-158;-138;2070;-152;-148;194;468;-20;16072
14:40:15.282;-147;-141;-123;-206;2070;-153;-147;195;468;-20;16072
14:40:15.282;-149;-139;-120;-235;2070;-150;-146;-135;468;-20;16072
14:40:15.282;-148;-141;-169;-230;2070;-152;-149;-8;468;-20;16072
14:40:15.282;-149;-143;-161;-176;2070;-153;-145;-522;468;-20;16072
14:40:15.282;-148;-141;-161;-129;2070;-151;-149;-395;468;-20;16072
14:40:15.282;-148;-139;-155;-150;2070;-154;-145;-8;560;-80;15880
14:40:15.282;-148;-138;-148;-165;2070;-153;-149;49;560;-80;15880
14:40:15.282;-148;-141;-125;-181;2070;-152;-144;-37;560;-80;15880
14:40:15.282;-156;-153;-111;-198;2070;-153;-147;214;560;-80;15880
14:40:15.282;-152;-144;-119;-194;2070;-153;-146;279;560;-80;15880
14:40:15.282;-147;-144;-107;-227;2070;-151;-145;280;560;-80;15880
14:40:15.298;-148;-139;-128;-235;2070;-150;-146;-47;516;-76;15984
14:40:15.298;-148;-144;-202;-258;2070;-150;-147;80;516;-76;15984
14:40:15.298;-146;-139;-170;-223;2070;-148;-142;123;516;-76;15984
14:40:15.298;-148;-136;-158;-188;2070;-151;-150;188;516;-76;15984
14:40:15.298;-150;-145;-130;-110;2070;-150;-142;46;516;-76;15984
14:40:15.298;-154;-142;-161;-95;2070;-150;-148;173;516;-76;15984
14:40:15.298;-150;-145;-130;-120;2070;-149;-145;-122;464;-104;15956
14:40:15.298;-148;-138;-135;-153;2070;-153;-148;5;464;-104;15956
14:40:15.298;-146;-137;-129;-160;2070;-151;-148;120;464;-104;15956
14:40:15.298;-149;-142;-142;-185;2070;-151;-143;211;464;-104;15956
14:40:15.298;-151;-144;-164;-193;2070;-156;-146;-344;464;-104;15956
14:40:15.298;-152;-153;-144;-190;2070;-155;-147;-217;464;-104;15956
14:40:15.313;-147;-152;-132;-212;2070;-152;-146;-125;548;16;15780
14:40:15.313;-148;-145;-124;-239;2070;-151;-149;96;548;16;15780
14:40:15.313;-147;-143;-154;-238;2061;-153;-152;228;548;16;15780
14:40:15.313;-149;-143;-143;-230;1934;-152;-149;186;548;16;15780
14:40:15.313;-152;-139;-151;-213;1945;-152;-145;-263;548;16;15780
14:40:15.313;-151;-136;-157;-193;1882;-152;-143;-136;548;16;15780
14:40:15.313;-153;-142;-147;-88;2070;-152;-145;-9;428;-36;16036
14:40:15.313;-149;-138;-141;-99;2070;-151;-146;-50;428;-36;16036
14:40:15.313;-150;-146;-130;-180;2070;-151;-142;-228;428;-36;16036
14:40:15.313;-146;-140;-134;-183;2070;-150;-145;-101;428;-36;16036
14:40:15.313;-144;-137;-129;-213;2070;-149;-148;-96;428;-36;16036
14:40:15.313;-143;-139;-124;-176;2070;-150;-147;30;428;-36;16036
14:40:15.313;-150;-143;-137;-180;2070;-151;-142;-30;580;-60;15792
14:40:15.313;-152;-142;-145;-205;2070;-150;-149;166;580;-60;15792
14:40:15.329;-146;-145;-159;-214;2070;-153;-142;-193;580;-60;15792
14:40:15.329;-151;-142;-173;-243;2070;-152;-147;-66;580;-60;15792
14:40:15.329;-146;-140;-162;-240;2070;-152;-152;238;580;-60;15792
14:40:15.329;-149;-144;-160;-223;1943;-153;-150;160;580;-60;15792
14:40:15.329;-149;-146;-147;-116;1830;-151;-144;-108;524;-92;16336
14:40:15.329;-148;-142;-140;-103;1841;-153;-146;19;524;-92;16336
14:40:15.329;-150;-143;-127;-161;1651;-154;-146;-18;524;-92;16336
14:40:15.329;-149;-137;-138;-193;1778;-152;-147;109;524;-92;16336
14:40:15.329;-153;-135;-139;-197;1717;-153;-143;-42;524;-92;16336
14:40:15.329;-155;-140;-139;-206;1844;-152;-143;85;524;-92;16336
14:40:15.329;-155;-146;-138;-202;2024;-153;-145;212;224;-100;16072
14:40:15.329;-151;-140;-138;-192;1999;-150;-145;85;224;-100;16072
14:40:15.329;-148;-140;-152;-197;2069;-153;-145;-284;224;-100;16072
14:40:15.329;-150;-148;-150;-188;2070;-151;-146;-157;224;-100;16072
14:40:15.329;-150;-139;-145;-182;2070;-151;-145;16;224;-100;16072
14:40:15.329;-149;-145;-145;-160;2070;-147;-146;143;224;-100;16072
14:40:15.344;-150;-139;-162;-156;2070;-148;-153;321;464;-28;15948
14:40:15.344;-147;-138;-155;-185;2070;-151;-150;194;464;-28;15948
14:40:15.344;-147;-138;-149;-199;2070;-150;-142;-180;464;-28;15948
14:40:15.344;-150;-140;-143;-203;2070;-151;-144;-53;464;-28;15948
14:40:15.344;-150;-146;-145;-204;2070;-153;-147;-64;464;-28;15948
14:40:15.344;-150;-144;-134;-181;1904;-153;-148;27;464;-28;15948
14:40:15.344;-154;-145;-141;-195;1807;-154;-147;65;632;36;15820
14:40:15.344;-151;-141;-140;-195;1966;-151;-147;192;632;36;15820
14:40:15.344;-149;-140;-133;-179;2044;-152;-150;-224;632;36;15820
14:40:15.344;-147;-144;-139;-191;1917;-154;-150;-138;632;36;15820
14:40:15.344;-151;-147;-134;-190;1865;-154;-146;-207;632;36;15820
14:40:15.344;-150;-150;-149;-176;1939;-152;-149;244;632;36;15820
14:40:15.344;-152;-143;-149;-180;2060;-151;-145;-17;480;8;15872
14:40:15.344;-152;-146;-149;-192;2070;-149;-147;110;480;8;15872
14:40:15.344;-152;-143;-138;-204;2070;-148;-143;-96;480;8;15872
14:40:15.344;-146;-134;-129;-218;2070;-149;-148;31;480;8;15872
14:40:15.360;-147;-134;-147;-222;2070;-150;-146;256;480;8;15872
14:40:15.360;-150;-139;-142;-205;2070;-149;-144;285;480;8;15872
14:40:15.360;-154;-147;-148;-170;2070;-149;-145;106;544;-40;16260
14:40:15.360;-152;-147;-166;-155;2070;-150;-148;57;544;-40;16260
14:40:15.360;-147;-143;-148;-170;2070;-148;-143;-13;544;-40;16260
14:40:15.360;-147;-142;-99;-204;2070;-152;-148;268;544;-40;16260
14:40:15.360;-147;-136;-101;-210;2070;-152;-152;141;544;-40;16260
14:40:15.360;-151;-147;-125;-217;2070;-151;-149;207;544;-40;16260
14:40:15.360;-149;-151;-157;-194;2070;-151;-143;-200;332;-40;15672
14:40:15.360;-152;-149;-163;-171;2070;-154;-145;-73;332;-40;15672
14:40:15.360;-157;-140;-165;-189;2070;-153;-147;-101;332;-40;15672
14:40:15.360;-143;-135;-160;-144;2070;-153;-146;79;332;-40;15672
14:40:15.360;-145;-138;-155;-111;1877;-152;-147;206;332;-40;15672
14:40:15.360;-152;-148;-171;-134;2004;-150;-146;79;332;-40;15672
14:40:15.360;-152;-135;-139;-196;2070;-150;-147;-275;540;12;15800
14:40:15.360;-151;-138;-134;-236;2070;-153;-147;-148;540;12;15800
14:40:15.376;-150;-147;-163;-268;2070;-154;-143;-236;540;12;15800
14:40:15.376;-148;-136;-157;-264;2070;-152;-148;54;540;12;15800
14:40:15.376;-142;-131;-137;-228;2070;-151;-147;292;540;12;15800
14:40:15.376;-146;-134;-143;-171;2070;-149;-145;165;540;12;15800
14:40:15.376;-152;-141;-155;-145;2070;-147;-148;-94;552;28;16072
14:40:15.376;-156;-149;-147;-157;2070;-148;-147;33;552;28;16072
14:40:15.376;-150;-145;-148;-136;2070;-150;-144;13;552;28;16072
14:40:15.376;-151;-142;-149;-155;2070;-152;-150;202;552;28;16072
14:40:15.376;-147;-144;-153;-150;2070;-152;-144;-109;552;28;16072
14:40:15.376;-145;-140;-147;-204;2070;-149;-147;18;552;28;16072
14:40:15.376;-145;-143;-124;-298;2070;-150;-150;-111;424;-32;16120
14:40:15.376;-146;-146;-114;-328;2070;-153;-147;-174;424;-32;16120
14:40:15.376;-154;-149;-142;-266;2070;-154;-144;-390;424;-32;16120
14:40:15.376;-147;-134;-192;-139;2070;-153;-148;-263;424;-32;16120
14:40:15.392;-146;-129;-166;12;2070;-152;-148;-136;424;-32;16120
14:40:15.392;-154;-148;-134;-75;2070;-153;-146;-9;424;-32;16120
14:40:15.392;-155;-140;-131;-105;2070;-153;-147;-173;532;16;15956
14:40:15.392;-152;-138;-115;-91;2070;-153;-147;-46;532;16;15956
14:40:15.392;-154;-137;-124;-163;2070;-150;-144;-141;532;16;15956
14:40:15.392;-151;-140;-186;-185;2070;-149;-143;295;532;16;15956
14:40:15.392;-151;-146;-157;-178;2070;-151;-145;219;532;16;15956
14:40:15.392;-151;-143;-142;-169;2070;-149;-146;-62;532;16;15956
14:40:15.392;-150;-138;-136;-185;2070;-153;-143;-232;548;-20;15868
14:40:15.392;-149;-139;-122;-198;2070;-148;-147;-105;548;-20;15868
14:40:15.392;-148;-141;-163;-230;2070;-149;-144;-35;548;-20;15868
14:40:15.392;-148;-144;-147;-239;2070;-147;-145;275;548;-20;15868
14:40:15.392;-147;-141;-130;-228;2070;-147;-146;66;548;-20;15868
14:40:15.392;-153;-144;-138;-213;2070;-150;-149;16;548;-20;15868
14:40:15.407;-150;-144;-171;-223;2070;-154;-144;-122;524;-12;15848
14:40:15.407;-150;-148;-169;-213;2070;-153;-148;5;524;-12;15848
14:40:15.407;-147;-141;-135;-224;2070;-151;-147;-20;524;-12;15848
14:40:15.407;-149;-137;-94;-207;2070;-150;-147;209;524;-12;15848
14:40:15.407;-148;-139;-109;-153;2070;-156;-144;82;524;-12;15848
14:40:15.407;-148;-151;-172;-155;2070;-154;-150;-43;524;-12;15848
14:40:15.407;-150;-148;-153;-152;2070;-152;-147;103;444;36;16176
14:40:15.407;-147;-134;-140;-156;2070;-152;-144;230;444;36;16176
14:40:15.407;-146;-136;-146;-189;2070;-152;-145;-285;444;36;16176
14:40:15.407;-148;-144;-146;-200;2070;-152;-147;-158;444;36;16176
14:40:15.407;-152;-152;-144;-191;2070;-149;-142;-59;444;36;16176
14:40:15.407;-149;-147;-107;-192;2070;-149;-144;321;444;36;16176
14:40:15.407;-150;-149;-125;-211;2070;-150;-144;-253;480;-20;15992
14:40:15.407;-147;-143;-171;-202;2070;-148;-149;-164;480;-20;15992
14:40:15.423;-152;-141;-173;-194;2070;-150;-143;-311;480;-20;15992
14:40:15.423;-147;-136;-146;-193;2070;-150;-148;-184;480;-20;15992
14:40:15.423;-151;-133;-143;-181;2070;-150;-141;-170;480;-20;15992
14:40:15.423;-157;-144;-154;-177;2070;-150;-146;282;480;-20;15992
14:40:15.423;-151;-140;-164;-163;2070;-147;-154;-52;524;48;15928
14:40:15.423;-145;-134;-136;-153;2070;-155;-150;-38;524;48;15928
14:40:15.423;-149;-140;-134;-175;2070;-153;-142;-251;524;48;15928
14:40:15.423;-147;-137;-101;-198;2070;-152;-145;-124;524;48;15928
14:40:15.423;-147;-142;-131;-203;2070;-155;-145;-306;524;48;15928
14:40:15.423;-148;-146;-134;-202;1943;-154;-147;-179;524;48;15928
14:40:15.423;-146;-141;-155;-211;1904;-153;-143;-386;548;64;15968
14:40:15.423;-148;-145;-174;-217;1960;-150;-148;-259;548;64;15968
14:40:15.423;-150;-149;-176;-203;2070;-152;-147;166;548;64;15968
14:40:15.423;-147;-147;-161;-198;2070;-151;-144;216;548;64;15968
14:40:15.423;-149;-137;-149;-140;2049;-151;-145;-337;548;64;15968
14:40:15.423;-148;-136;-139;-142;2070;-152;-148;-210;548;64;15968
14:40:15.438;-157;-141;-120;-176;2070;-150;-142;-256;512;40;15960
14:40:15.438;-148;-136;-120;-183;2070;-146;-147;291;512;40;15960
14:40:15.438;-151;-141;-145;-209;2070;-145;-148;-144;512;40;15960
14:40:15.438;-149;-142;-167;-225;2070;-147;-147;-17;512;40;15960
14:40:15.438;-150;-143;-156;-214;2070;-149;-140;-402;512;40;15960
14:40:15.438;-148;-146;-159;-199;2070;-149;-148;-275;512;40;15960
14:40:15.438;-148;-141;-147;-152;2070;-151;-143;-219;480;16;16036
14:40:15.438;-152;-145;-145;-152;2070;-149;-147;183;480;16;16036
14:40:15.438;-148;-141;-148;-192;2070;-152;-153;99;480;16;16036
14:40:15.438;-148;-146;-143;-212;2070;-155;-148;63;480;16;16036
14:40:15.438;-148;-143;-126;-226;2070;-152;-143;-158;480;16;16036
14:40:15.438;-148;-143;-123;-239;2070;-150;-143;-31;480;16;16036
14:40:15.438;-145;-142;-122;-216;2061;-154;-146;-398;512;132;15772
14:40:15.438;-152;-149;-148;-212;1934;-152;-148;-271;512;132;15772
14:40:15.454;-154;-150;-162;-170;1943;-154;-146;-92;512;132;15772
14:40:15.454;-148;-140;-161;-111;2070;-149;-147;35;512;132;15772
14:40:15.454;-150;-140;-153;-115;2070;-150;-143;-172;512;132;15772
14:40:15.454;-151;-144;-153;-162;2070;-151;-142;-45;512;132;15772
14:40:15.454;-149;-145;-140;-196;2070;-151;-142;-302;600;64;15948
14:40:15.454;-151;-150;-126;-210;2070;-151;-149;-175;600;64;15948
14:40:15.454;-152;-143;-129;-201;2070;-151;-142;-132;600;64;15948
14:40:15.454;-150;-140;-142;-181;2070;-149;-146;294;600;64;15948
14:40:15.454;-148;-131;-145;-150;2070;-144;-145;234;600;64;15948
14:40:15.454;-148;-134;-145;-144;2070;-147;-147;260;600;64;15948
14:40:15.454;-149;-134;-145;-160;2070;-150;-141;-335;600;64;15948
14:40:15.454;-150;-134;-134;-166;2070;-149;-148;-208;600;64;15948
14:40:15.469;-148;-136;-143;-189;2070;-155;-147;-100;496;80;15964
14:40:15.469;-153;-143;-132;-205;2070;-152;-143;182;496;80;15964
14:40:15.469;-152;-150;-159;-207;2070;-151;-146;210;496;80;15964
14:40:15.469;-148;-149;-150;-210;2070;-151;-146;-355;496;80;15964
14:40:15.469;-147;-149;-133;-205;2070;-153;-145;-96;496;80;15964
14:40:15.469;-150;-147;-128;-183;1943;-153;-149;31;496;80;15964
14:40:15.469;-146;-141;-119;-197;2070;-152;-146;-226;456;-32;15920
14:40:15.469;-144;-139;-93;-215;2070;-153;-146;-99;456;-32;15920
14:40:15.469;-153;-147;-143;-235;2070;-152;-145;-299;456;-32;15920
14:40:15.469;-155;-144;-174;-229;2070;-153;-146;-172;456;-32;15920
14:40:15.469;-153;-141;-194;-260;2070;-151;-147;275;456;-32;15920
14:40:15.469;-148;-146;-154;-288;2070;-151;-144;148;456;-32;15920
14:40:15.469;-150;-148;-167;-261;2070;-149;-148;-60;524;-24;16068
14:40:15.469;-149;-141;-134;-194;2070;-150;-146;-15;524;-24;16068
14:40:15.469;-148;-126;-132;-50;2070;-152;-143;-142;524;-24;16068
14:40:15.469;-154;-138;-149;-77;2070;-150;-148;-15;524;-24;16068
14:40:15.469;-151;-134;-154;-147;2070;-149;-147;246;524;-24;16068
14:40:15.469;-148;-133;-173;-96;2070;-152;-144;119;524;-24;16068
14:40:15.485;-147;-135;-164;-54;2070;-149;-150;-184;460;-4;15960
14:40:15.485;-147;-133;-144;-114;2070;-151;-148;-103;460;-4;15960
14:40:15.485;-148;-141;-123;-168;2070;-151;-144;-227;460;-4;15960
14:40:15.485;-152;-144;-157;-196;2070;-156;-148;92;460;-4;15960
14:40:15.485;-156;-150;-153;-207;2070;-154;-144;-282;460;-4;15960
14:40:15.485;-151;-148;-141;-181;2070;-153;-144;-155;460;-4;15960
14:40:15.485;-150;-143;-115;-188;2070;-153;-147;174;468;-40;15892
14:40:15.485;-151;-147;-128;-203;2070;-153;-146;47;468;-40;15892
14:40:15.501;-150;-146;-162;-210;2070;-152;-144;-99;468;-40;15892
14:40:15.501;-154;-148;-132;-205;2070;-155;-145;28;468;-40;15892
14:40:15.501;-149;-141;-106;-195;2070;-152;-146;116;468;-40;15892
14:40:15.501;-149;-145;-125;-195;2070;-150;-145;158;468;-40;15892
14:40:15.501;-149;-141;-106;-195;2070;-151;-146;274;576;-36;16052
14:40:15.501;-150;-140;-162;-206;2070;-150;-149;216;576;-36;16052
14:40:15.501;-146;-137;-195;-217;2070;-150;-142;-1;576;-36;16052
14:40:15.501;-150;-140;-174;-190;2070;-150;-144;126;576;-36;16052
14:40:15.501;-146;-138;-143;-197;2070;-151;-145;201;576;-36;16052
14:40:15.501;-143;-138;-155;-216;2070;-150;-146;234;576;-36;16052
14:40:15.501;-144;-141;-151;-211;2070;-150;-146;-14;548;-60;15948
14:40:15.501;-142;-132;-141;-231;2070;-151;-147;-132;548;-60;15948
14:40:15.501;-150;-139;-146;-231;2070;-152;-143;-435;548;-60;15948
14:40:15.501;-144;-139;-111;-200;2070;-152;-147;-308;548;-60;15948
14:40:15.501;-150;-151;-141;-179;2070;-150;-149;9;548;-60;15948
14:40:15.501;-157;-154;-157;-201;2070;-155;-149;90;548;-60;15948
14:40:15.501;-156;-147;-150;-171;2070;-152;-144;-119;548;-80;15964
14:40:15.501;-153;-147;-144;-159;1980;-152;-149;8;548;-80;15964
14:40:15.516;-151;-142;-129;-108;1961;-154;-144;-146;548;-80;15964
14:40:15.516;-149;-136;-112;-169;2070;-152;-147;-19;548;-80;15964
14:40:15.516;-151;-142;-129;-218;2070;-152;-148;279;548;-80;15964
14:40:15.516;-153;-146;-144;-183;2070;-152;-144;264;548;-80;15964
14:40:15.516;-154;-145;-160;-110;2070;-150;-145;-234;500;-40;15956
14:40:15.516;-149;-146;-164;-158;2070;-149;-148;-107;500;-40;15956
14:40:15.516;-149;-140;-176;-172;2070;-152;-142;-275;500;-40;15956
14:40:15.516;-151;-140;-165;-200;2070;-149;-147;-148;500;-40;15956
14:40:15.516;-145;-137;-145;-208;2070;-150;-142;-44;500;-40;15956
14:40:15.516;-147;-136;-122;-217;2070;-149;-148;274;500;-40;15956
14:40:15.516;-146;-141;-119;-212;2070;-150;-151;265;524;-144;15784
14:40:15.516;-146;-133;-149;-184;2070;-150;-143;162;524;-144;15784
14:40:15.516;-149;-142;-144;-183;2070;-154;-145;-421;524;-144;15784
14:40:15.516;-154;-145;-132;-161;2070;-153;-147;-294;524;-144;15784
14:40:15.516;-148;-140;-141;-156;2070;-152;-145;-77;524;-144;15784
14:40:15.516;-148;-151;-143;-174;2070;-154;-148;-13;524;-144;15784
14:40:15.516;-150;-147;-151;-162;2070;-150;-147;96;480;-120;15872
14:40:15.516;-149;-144;-130;-167;2036;-152;-145;-193;480;-120;15872
14:40:15.532;-148;-142;-92;-188;2061;-152;-149;179;480;-120;15872
14:40:15.532;-148;-144;-137;-198;1934;-150;-149;204;480;-120;15872
14:40:15.532;-150;-143;-142;-212;1850;-151;-144;-195;480;-120;15872
14:40:15.532;-157;-152;-131;-208;1907;-152;-144;-68;480;-120;15872
14:40:15.532;-143;-148;-134;-212;2070;-151;-143;-195;516;-112;16048
14:40:15.532;-149;-140;-171;-235;2070;-149;-146;-68;516;-112;16048
14:40:15.532;-143;-139;-201;-228;2070;-149;-141;39;516;-112;16048
14:40:15.532;-148;-141;-156;-224;2070;-149;-139;265;516;-112;16048
14:40:15.532;-146;-135;-130;-219;2070;-148;-142;177;516;-112;16048
14:40:15.532;-145;-138;-136;-167;2070;-149;-146;-18;516;-112;16048
14:40:15.532;-150;-145;-147;-134;2070;-150;-141;-350;504;-100;16008
14:40:15.532;-149;-131;-173;-123;2070;-150;-149;-223;504;-100;16008
14:40:15.532;-150;-138;-179;-155;2070;-148;-146;188;504;-100;16008
14:40:15.532;-149;-140;-156;-151;2070;-153;-145;61;504;-100;16008
14:40:15.532;-148;-143;-149;-169;2070;-148;-148;229;504;-100;16008
14:40:15.532;-145;-139;-140;-191;2070;-151;-148;218;504;-100;16008
14:40:15.548;-148;-140;-137;-207;2070;-150;-143;-180;512;-12;15936
14:40:15.548;-146;-141;-120;-205;2070;-152;-144;-53;512;-12;15936
14:40:15.548;-151;-141;-133;-213;2070;-152;-144;-332;512;-12;15936
14:40:15.548;-149;-139;-157;-197;2070;-153;-145;-205;512;-12;15936
14:40:15.548;-147;-140;-143;-192;1923;-152;-145;-78;512;-12;15936
14:40:15.548;-147;-144;-134;-167;1853;-151;-147;49;512;-12;15936
14:40:15.548;-150;-149;-130;-159;2070;-149;-147;176;532;-28;15972
14:40:15.548;-156;-158;-130;-189;2070;-151;-143;214;532;-28;15972
14:40:15.548;-155;-150;-139;-224;2070;-150;-144;-298;532;-28;15972
14:40:15.548;-148;-136;-162;-229;2070;-148;-147;-171;532;-28;15972
14:40:15.548;-141;-130;-167;-204;2070;-146;-141;8;532;-28;15972
14:40:15.548;-146;-135;-152;-155;2070;-148;-142;135;532;-28;15972
14:40:15.548;-149;-142;-134;-109;2070;-147;-143;-229;440;60;15964
14:40:15.548;-150;-138;-124;-137;2070;-149;-147;-102;440;60;15964
14:40:15.564;-147;-139;-143;-169;2070;-151;-143;-5;440;60;15964
14:40:15.564;-149;-135;-146;-176;2070;-151;-148;73;440;60;15964
14:40:15.564;-149;-137;-161;-179;2070;-149;-142;-89;440;60;15964
14:40:15.564;-146;-144;-142;-185;2070;-149;-146;38;440;60;15964
14:40:15.564;-147;-149;-134;-207;2070;-149;-149;-282;456;-88;16032
14:40:15.564;-149;-147;-124;-235;1943;-149;-149;-385;456;-88;16032
14:40:15.564;-147;-143;-131;-263;1805;-152;-144;-274;456;-88;16032
14:40:15.564;-149;-144;-141;-260;1678;-153;-147;-147;456;-88;16032
14:40:15.564;-145;-140;-136;-250;1659;-153;-146;-7;456;-88;16032
14:40:15.564;-146;-134;-137;-184;1683;-150;-147;120;456;-88;16032
14:40:15.564;-147;-128;-139;-118;1531;-152;-144;-7;488;-28;16040
14:40:15.564;-148;-139;-139;-100;1404;-149;-148;120;488;-28;16040
14:40:15.564;-150;-145;-157;-157;1701;-149;-141;-7;488;-28;16040
14:40:15.564;-153;-144;-184;-201;1828;-149;-144;120;488;-28;16040
14:40:15.579;-151;-142;-168;-205;1931;-148;-144;193;488;-28;16040
14:40:15.579;-148;-141;-152;-212;2070;-152;-147;66;488;-28;16040
14:40:15.579;-148;-136;-131;-208;2070;-152;-141;-292;420;-68;16032
14:40:15.579;-147;-139;-157;-214;2070;-146;-146;-165;420;-68;16032
14:40:15.579;-150;-146;-148;-213;2070;-148;-148;-146;420;-68;16032
14:40:15.579;-147;-144;-140;-134;2070;-150;-147;83;420;-68;16032
14:40:15.579;-150;-148;-115;-113;2070;-152;-144;-89;420;-68;16032
14:40:15.579;-151;-146;-101;-160;1968;-151;-148;38;420;-68;16032
14:40:15.579;-148;-144;-106;-142;1838;-152;-143;-89;484;-36;16084
14:40:15.579;-149;-137;-124;-157;1877;-154;-148;38;484;-36;16084
14:40:15.579;-148;-139;-183;-195;1665;-153;-151;9;484;-36;16084
14:40:15.579;-149;-134;-129;-190;1538;-152;-148;-36;484;-36;16084
14:40:15.579;-152;-133;-117;-211;1173;-152;-144;-163;484;-36;16084
14:40:15.579;-146;-131;-172;-195;1248;-151;-144;-36;484;-36;16084
14:40:15.595;-152;-146;-192;-171;1342;-152;-146;1;516;28;16064
14:40:15.595;-151;-144;-182;-178;1471;-152;-147;128;516;28;16064
14:40:15.595;-153;-144;-144;-188;1631;-151;-145;20;516;28;16064
14:40:15.595;-147;-136;-123;-181;1758;-150;-146;147;516;28;16064
14:40:15.595;-148;-141;-128;-197;1978;-148;-143;20;516;28;16064
14:40:15.595;-151;-144;-157;-213;2070;-146;-143;147;516;28;16064
14:40:15.595;-151;-145;-155;-215;2070;-150;-141;-303;452;-52;16136
14:40:15.595;-150;-144;-153;-214;2070;-146;-147;-176;452;-52;16136
14:40:15.595;-148;-141;-152;-204;2070;-147;-143;-237;452;-52;16136
14:40:15.595;-152;-144;-149;-171;2070;-146;-148;225;452;-52;16136
14:40:15.595;-148;-141;-142;-109;2070;-148;-149;-88;452;-52;16136
14:40:15.595;-145;-136;-132;-166;2070;-149;-147;39;452;-52;16136
14:40:15.595;-145;-140;-133;-198;2070;-150;-145;-13;480;-64;16056
14:40:15.595;-148;-144;-139;-215;2070;-154;-148;134;480;-64;16056
14:40:15.610;-148;-145;-137;-212;1943;-153;-144;7;480;-64;16056
14:40:15.610;-148;-138;-154;-211;1816;-152;-144;114;480;-64;16056
14:40:15.610;-147;-139;-142;-181;1833;-151;-146;-95;480;-64;16056
14:40:15.610;-151;-137;-123;-143;1730;-152;-148;32;480;-64;16056
14:40:15.610;-147;-134;-130;-167;1457;-152;-143;-95;488;-48;16012
14:40:15.610;-148;-143;-139;-188;1584;-153;-146;32;488;-48;16012
14:40:15.610;-149;-148;-142;-185;1717;-153;-145;-29;488;-48;16012
14:40:15.610;-151;-146;-134;-180;1604;-152;-146;-62;488;-48;16012
14:40:15.610;-154;-145;-138;-193;1848;-153;-143;23;488;-48;16012
14:40:15.610;-146;-142;-140;-243;1975;-150;-148;97;488;-48;16012
14:40:15.610;-148;-140;-141;-271;2070;-148;-145;269;452;-76;15924
14:40:15.610;-150;-148;-142;-266;2070;-148;-143;142;452;-76;15924
14:40:15.610;-150;-147;-141;-206;2070;-148;-147;-68;452;-76;15924
14:40:15.610;-146;-136;-154;-119;2070;-148;-150;59;452;-76;15924
14:40:15.626;-149;-132;-165;-93;2070;-150;-143;-80;452;-76;15924
14:40:15.626;-151;-136;-172;-96;2070;-151;-144;47;452;-76;15924
14:40:15.626;-148;-137;-161;-152;2070;-150;-146;209;452;-80;15860
14:40:15.626;-149;-141;-133;-184;2070;-152;-147;223;452;-80;15860
14:40:15.626;-152;-144;-124;-203;2070;-155;-144;-454;452;-80;15860
14:40:15.626;-150;-146;-141;-212;2070;-154;-150;-327;452;-80;15860
14:40:15.626;-153;-147;-145;-184;2070;-152;-143;-369;452;-80;15860
14:40:15.626;-152;-148;-147;-179;2070;-153;-144;222;452;-80;15860
14:40:15.626;-150;-143;-145;-160;2070;-154;-146;-372;512;20;15900
14:40:15.626;-143;-139;-150;-186;2070;-153;-147;-245;512;20;15900
14:40:15.626;-147;-145;-158;-190;1901;-151;-147;-118;512;20;15900
14:40:15.626;-147;-142;-145;-182;2028;-152;-145;-245;512;20;15900
14:40:15.626;-148;-140;-125;-130;2070;-149;-145;-188;512;20;15900
14:40:15.626;-148;-141;-131;-164;2070;-150;-147;66;512;20;15900
14:40:15.626;-149;-142;-153;-191;2070;-150;-146;126;480;-68;15760
14:40:15.626;-149;-145;-160;-194;2070;-151;-149;-195;480;-68;15760
14:40:15.641;-151;-139;-156;-199;2070;-148;-147;268;480;-68;15760
14:40:15.641;-149;-138;-151;-194;2070;-147;-143;141;480;-68;15760
14:40:15.641;-151;-140;-148;-190;2070;-146;-145;-281;480;-68;15760
14:40:15.641;-145;-137;-127;-203;2070;-148;-145;-154;480;-68;15760
14:40:15.641;-146;-133;-128;-201;2070;-152;-140;-414;540;52;15772
14:40:15.641;-148;-139;-159;-197;2070;-152;-149;-287;540;52;15772
14:40:15.641;-149;-145;-143;-199;2070;-151;-143;-257;540;52;15772
14:40:15.641;-147;-146;-133;-204;1983;-152;-142;147;540;52;15772
14:40:15.641;-151;-149;-119;-201;1531;-152;-146;148;540;52;15772
14:40:15.641;-145;-144;-128;-194;1658;-153;-145;21;540;52;15772
14:40:15.641;-143;-141;-146;-187;1448;-153;-142;-106;580;76;15900
14:40:15.641;-145;-136;-150;-188;1572;-152;-144;21;580;76;15900
14:40:15.641;-148;-141;-148;-192;1699;-151;-146;-67;580;76;15900
14:40:15.641;-151;-144;-154;-200;1734;-152;-144;60;580;76;15900
14:40:15.641;-151;-141;-138;-203;1658;-153;-143;-295;580;76;15900
14:40:15.657;-146;-133;-137;-205;1785;-151;-147;-168;580;76;15900
14:40:15.657;-151;-138;-149;-191;1835;-153;-140;-345;600;108;16052
14:40:15.657;-150;-145;-157;-202;1962;-150;-143;-218;600;108;16052
14:40:15.657;-150;-141;-136;-195;2070;-151;-144;207;600;108;16052
14:40:15.657;-150;-142;-150;-174;2070;-149;-147;80;600;108;16052
14:40:15.657;-151;-145;-149;-176;2070;-151;-141;-307;600;108;16052
14:40:15.657;-151;-141;-115;-171;2070;-150;-148;-180;600;108;16052
14:40:15.657;-144;-138;-125;-254;2070;-150;-147;214;468;180;16392
14:40:15.657;-144;-138;-162;-318;2070;-149;-146;87;468;180;16392
14:40:15.657;-149;-141;-167;-267;2070;-150;-152;-188;468;180;16392
14:40:15.657;-147;-142;-155;-179;1953;-153;-151;-61;468;180;16392
14:40:15.673;-147;-128;-152;-64;1836;-153;-144;-298;468;180;16392
14:40:15.673;-145;-131;-139;-27;1709;-153;-147;-171;468;180;16392
14:40:15.673;-157;-149;-116;-20;1697;-153;-147;-49;444;132;16380
14:40:15.673;-155;-148;-141;-136;1495;-152;-147;78;444;132;16380
14:40:15.673;-148;-145;-159;-185;1166;-153;-144;-49;444;132;16380
14:40:15.673;-152;-148;-134;-191;1134;-153;-149;-112;444;132;16380
14:40:15.673;-149;-143;-148;-197;1238;-152;-142;-226;444;132;16380
14:40:15.673;-150;-139;-141;-186;1436;-150;-144;-99;444;132;16380
14:40:15.673;-148;-134;-137;-187;1538;-152;-145;120;552;180;16296
14:40:15.673;-150;-143;-120;-188;1587;-152;-145;130;552;180;16296
14:40:15.673;-152;-137;-155;-196;1702;-151;-143;-303;552;180;16296
14:40:15.673;-151;-135;-156;-209;1829;-146;-146;-176;552;180;16296
14:40:15.673;-147;-138;-144;-205;2070;-147;-146;-120;552;180;16296
14:40:15.673;-150;-147;-152;-201;2070;-146;-145;-73;552;180;16296
14:40:15.673;-149;-142;-149;-194;2070;-149;-141;-379;504;156;16020
14:40:15.673;-151;-144;-156;-213;2070;-151;-149;-252;504;156;16020
14:40:15.673;-152;-137;-135;-217;2070;-151;-141;-239;504;156;16020
14:40:15.673;-145;-137;-139;-216;2070;-153;-146;-64;504;156;16020
14:40:15.673;-150;-139;-137;-178;2070;-150;-147;167;504;156;16020
14:40:15.673;-146;-140;-154;-111;1943;-151;-145;40;504;156;16020
14:40:15.782;-149;-143;-158;-140;1824;-151;-149;-325;540;224;16072
14:40:15.782;-150;-147;-147;-176;1697;-154;-148;-220;540;224;16072
14:40:15.782;-149;-142;-135;-189;1269;-153;-144;-347;540;224;16072
14:40:15.782;-153;-147;-135;-203;1336;-154;-148;-220;540;224;16072
14:40:15.782;-156;-147;-105;-199;1475;-152;-146;-93;540;224;16072
14:40:15.782;-147;-138;-169;-222;1517;-151;-145;-82;540;224;16072
14:40:15.782;-144;-138;-164;-258;1935;-151;-149;-196;540;224;16072
14:40:15.782;-153;-143;-131;-244;1852;-151;-150;-140;540;224;16072
14:40:15.782;-146;-136;-141;-214;1894;-151;-142;-138;548;184;15924
14:40:15.782;-144;-135;-131;-190;2003;-151;-145;-11;548;184;15924
14:40:15.782;-146;-133;-125;-134;2070;-150;-140;-146;548;184;15924
14:40:15.782;-148;-145;-114;-163;2070;-149;-145;-19;548;184;15924
14:40:15.782;-149;-143;-112;-185;2070;-147;-151;-69;548;184;15924
14:40:15.782;-149;-150;-171;-199;2070;-150;-149;-144;548;184;15924
14:40:15.782;-150;-142;-168;-120;2070;-150;-142;-243;580;196;15864
14:40:15.782;-147;-132;-155;-102;2070;-152;-143;261;580;196;15864
14:40:15.782;-148;-139;-144;-198;2070;-152;-144;-17;580;196;15864
14:40:15.782;-149;-146;-167;-219;2070;-151;-144;96;580;196;15864
14:40:15.782;-148;-145;-164;-239;2039;-153;-145;-198;580;196;15864
14:40:15.782;-148;-135;-153;-225;2070;-152;-147;-71;580;196;15864
14:40:15.782;-149;-140;-148;-200;1820;-151;-142;-115;524;160;15916
14:40:15.782;-149;-147;-131;-155;1834;-152;-142;12;524;160;15916
14:40:15.782;-148;-143;-109;-227;1588;-152;-145;-115;524;160;15916
14:40:15.782;-145;-134;-131;-271;1497;-153;-149;-227;524;160;15916
14:40:15.782;-142;-129;-174;-208;1712;-154;-145;-133;524;160;15916
14:40:15.782;-145;-127;-158;-153;1839;-151;-147;-6;524;160;15916
14:40:15.782;-150;-141;-167;-132;2070;-150;-144;-133;496;68;15724
14:40:15.782;-155;-145;-170;-109;2070;-149;-144;-6;496;68;15724
14:40:15.782;-153;-145;-141;-83;2070;-148;-143;-278;496;68;15724
14:40:15.782;-154;-151;-111;-139;2070;-151;-150;-168;496;68;15724
14:40:15.782;-152;-144;-118;-134;2070;-149;-141;-159;496;68;15724
14:40:15.782;-154;-140;-166;-160;2070;-149;-145;240;496;68;15724
14:40:15.782;-154;-150;-129;-194;2070;-150;-145;47;596;44;15764
14:40:15.782;-151;-145;-128;-238;2070;-149;-146;174;596;44;15764
14:40:15.782;-147;-142;-123;-239;2070;-154;-143;-357;596;44;15764
14:40:15.782;-143;-137;-143;-218;2070;-151;-150;-230;596;44;15764
14:40:15.782;-145;-142;-171;-203;2070;-152;-144;-232;596;44;15764
14:40:15.782;-149;-148;-151;-128;2070;-153;-143;140;596;44;15764
14:40:15.782;-153;-143;-138;-206;1992;-153;-144;-396;552;-36;15964
14:40:15.782;-152;-144;-147;-240;1865;-151;-147;-269;552;-36;15964
14:40:15.782;-146;-151;-144;-193;1720;-153;-144;-142;552;-36;15964
14:40:15.782;-148;-145;-142;-153;1593;-150;-147;-15;552;-36;15964
14:40:15.782;-146;-132;-124;-141;1779;-151;-146;112;552;-36;15964
14:40:15.782;-148;-139;-143;-173;1723;-150;-145;147;552;-36;15964
14:40:15.782;-151;-147;-147;-175;1756;-153;-145;38;484;-88;15940
14:40:15.782;-152;-144;-153;-190;1811;-152;-146;-138;484;-88;15940
14:40:15.782;-151;-139;-160;-184;1737;-152;-142;-261;484;-88;15940
14:40:15.782;-148;-139;-155;-168;2070;-148;-145;-134;484;-88;15940
14:40:15.782;-148;-136;-153;-168;2070;-147;-147;-129;484;-88;15940
14:40:15.782;-151;-135;-158;-191;2070;-147;-146;76;484;-88;15940
14:40:15.782;-147;-136;-152;-195;2070;-148;-141;-5;520;-84;16020
14:40:15.782;-147;-139;-154;-193;2070;-153;-148;178;520;-84;16020
14:40:15.782;-146;-138;-153;-173;2070;-150;-143;-143;520;-84;16020
14:40:15.782;-149;-139;-135;-173;2070;-150;-147;-16;520;-84;16020
14:40:15.782;-146;-138;-124;-183;2070;-150;-151;111;520;-84;16020
14:40:15.782;-148;-139;-119;-186;2070;-152;-149;94;520;-84;16020
14:40:15.782;-148;-142;-119;-202;2070;-149;-143;-156;476;-148;16180
14:40:15.782;-150;-145;-119;-188;2070;-152;-145;-29;476;-148;16180
14:40:15.782;-150;-141;-138;-199;2070;-151;-144;-355;476;-148;16180
14:40:15.782;-148;-143;-145;-206;2070;-153;-146;-228;476;-148;16180
14:40:15.782;-152;-147;-153;-196;2070;-153;-144;-369;476;-148;16180
14:40:15.782;-148;-143;-138;-198;2070;-151;-146;-242;476;-148;16180
14:40:15.782;-151;-142;-151;-201;2070;-150;-149;-235;500;-196;16136
14:40:15.782;-147;-140;-147;-213;2070;-149;-146;-3;500;-196;16136
14:40:15.782;-143;-138;-121;-209;2070;-149;-143;-9;500;-196;16136
14:40:15.782;-149;-137;-127;-211;2070;-151;-147;194;500;-196;16136
14:40:15.782;-155;-142;-148;-207;2070;-150;-145;219;500;-196;16136
14:40:15.782;-151;-142;-161;-188;2070;-149;-142;169;500;-196;16136
14:40:15.782;-148;-144;-146;-198;2070;-147;-147;192;464;-220;16152
14:40:15.782;-146;-142;-137;-195;2070;-151;-145;-275;464;-220;16152
14:40:15.782;-147;-142;-151;-170;2070;-148;-140;-104;464;-220;16152
14:40:15.782;-147;-139;-166;-119;2070;-149;-143;23;464;-220;16152
14:40:15.782;-146;-137;-143;-186;2070;-155;-143;-351;464;-220;16152
14:40:15.782;-146;-143;-145;-212;2070;-152;-147;-243;464;-220;16152
14:40:15.782;-148;-153;-153;-178;2070;-152;-148;62;456;-216;15832
14:40:15.782;-153;-154;-150;-137;2070;-154;-146;-65;456;-216;15832
14:40:15.782;-151;-139;-122;-157;2070;-154;-143;-228;456;-216;15832
14:40:15.782;-147;-138;-141;-179;2070;-153;-143;-101;456;-216;15832
14:40:15.782;-145;-132;-149;-161;1875;-153;-143;-228;456;-216;15832
14:40:15.782;-149;-139;-164;-176;1960;-153;-145;-101;456;-216;15832
14:40:15.782;-153;-145;-146;-229;1986;-153;-144;-62;472;-252;15976
14:40:15.782;-149;-146;-145;-234;1989;-153;-147;159;472;-252;15976
14:40:15.782;-154;-136;-142;-212;2070;-150;-147;180;472;-252;15976
14:40:15.782;-148;-137;-142;-188;2070;-150;-143;-98;472;-252;15976
14:40:15.782;-147;-138;-134;-127;2070;-151;-151;157;472;-252;15976
14:40:15.782;-148;-134;-140;-137;2070;-149;-147;114;472;-252;15976
14:40:15.782;-147;-135;-144;-180;2070;-151;-146;212;452;-268;16016
14:40:15.782;-151;-140;-142;-192;2070;-149;-141;194;452;-268;16016
14:40:15.782;-147;-145;-148;-186;2070;-150;-143;-174;452;-268;16016
14:40:15.782;-148;-140;-147;-185;2070;-149;-146;-47;452;-268;16016
14:40:15.782;-146;-139;-140;-183;2070;-152;-140;-331;452;-268;16016
14:40:15.782;-144;-143;-125;-191;2070;-149;-150;-204;452;-268;16016
14:40:15.782;-149;-142;-124;-182;2070;-150;-145;-203;504;-212;15756
14:40:15.782;-150;-137;-143;-185;2070;-154;-146;40;504;-212;15756
14:40:15.782;-156;-145;-165;-191;2070;-153;-145;-249;504;-212;15756
14:40:15.782;-148;-142;-157;-190;1943;-154;-147;-285;504;-212;15756
14:40:15.782;-150;-142;-140;-195;1585;-150;-146;-158;504;-212;15756
14:40:15.782;-155;-146;-115;-190;1712;-152;-146;-282;504;-212;15756
14:40:15.782;-146;-142;-146;-213;1984;-149;-148;-279;516;-256;15832
14:40:15.782;-143;-139;-137;-211;1857;-153;-147;-152;516;-256;15832
14:40:15.798;-146;-134;-157;-210;1890;-151;-143;-339;516;-256;15832
14:40:15.798;-153;-148;-141;-221;2017;-150;-149;-212;516;-256;15832
14:40:15.798;-149;-139;-151;-228;2070;-149;-145;175;516;-256;15832
14:40:15.798;-148;-141;-157;-213;2070;-147;-144;74;516;-256;15832
14:40:15.798;-152;-145;-159;-169;2070;-147;-150;-172;572;-184;16180
14:40:15.798;-148;-143;-125;-178;2070;-147;-147;-118;572;-184;16180
14:40:15.798;-144;-143;-94;-242;2070;-149;-139;-354;572;-184;16180
14:40:15.798;-143;-144;-102;-306;2070;-149;-146;-227;572;-184;16180
14:40:15.798;-148;-141;-144;-274;2070;-151;-146;48;572;-184;16180
14:40:15.798;-152;-133;-165;-158;2070;-151;-145;141;572;-184;16180
14:40:15.798;-146;-118;-161;-27;2070;-151;-148;143;448;-200;16140
14:40:15.798;-151;-138;-153;-72;2070;-153;-145;16;448;-200;16140
14:40:15.798;-149;-133;-123;-128;2070;-151;-142;-239;448;-200;16140
14:40:15.798;-152;-151;-137;-144;2070;-152;-146;-112;448;-200;16140
14:40:15.814;-153;-156;-124;-176;2070;-155;-144;-340;448;-200;16140
14:40:15.814;-157;-161;-169;-208;1986;-152;-146;-213;448;-200;16140
14:40:15.814;-154;-141;-150;-242;1993;-151;-143;-387;440;-176;16100
14:40:15.814;-152;-138;-167;-199;2070;-151;-147;-260;440;-176;16100
14:40:15.814;-153;-141;-172;-124;2070;-149;-142;-153;440;-176;16100
14:40:15.814;-144;-129;-179;-134;2070;-150;-143;197;440;-176;16100
14:40:15.814;-143;-136;-154;-160;2070;-152;-143;-225;440;-176;16100
14:40:15.814;-150;-144;-166;-165;2070;-149;-146;-109;440;-176;16100
14:40:15.814;-147;-146;-160;-221;2070;-152;-139;-362;620;-144;16016
14:40:15.814;-149;-138;-142;-133;2070;-151;-149;-235;620;-144;16016
14:40:15.814;-149;-131;-135;-103;2070;-149;-145;224;620;-144;16016
14:40:15.814;-145;-135;-104;-163;2070;-151;-142;97;620;-144;16016
14:40:15.814;-149;-150;-150;-180;2070;-148;-150;-9;620;-144;16016
14:40:15.814;-152;-149;-153;-198;2070;-151;-150;191;620;-144;16016
14:40:15.829;-150;-147;-107;-206;2070;-150;-142;64;388;-172;15876
14:40:15.829;-148;-139;-94;-213;2070;-150;-143;103;388;-172;15876
14:40:15.829;-145;-131;-157;-196;2070;-153;-145;-354;388;-172;15876
14:40:15.829;-147;-138;-176;-189;2070;-152;-147;-227;388;-172;15876
14:40:15.829;-149;-147;-135;-196;1785;-153;-144;-209;388;-172;15876
14:40:15.829;-152;-144;-150;-202;1882;-150;-148;-82;388;-172;15876
14:40:15.829;-151;-150;-148;-199;1968;-150;-143;-368;588;-112;15964
14:40:15.829;-152;-145;-164;-204;2070;-150;-144;-241;588;-112;15964
14:40:15.829;-146;-142;-158;-228;2031;-153;-146;-172;588;-112;15964
14:40:15.829;-149;-142;-136;-247;2067;-151;-146;-129;588;-112;15964
14:40:15.829;-146;-136;-127;-276;1904;-150;-146;-2;588;-112;15964
14:40:15.829;-145;-140;-127;-259;2031;-149;-143;-129;588;-112;15964
14:40:15.829;-147;-141;-159;-205;2070;-148;-148;-164;412;-40;15864
14:40:15.829;-149;-139;-155;-168;2070;-147;-145;-94;412;-40;15864
14:40:15.829;-148;-137;-149;-73;2070;-148;-141;-282;412;-40;15864
14:40:15.829;-149;-141;-149;-86;2070;-147;-149;-155;412;-40;15864
14:40:15.844;-154;-146;-152;-158;2070;-150;-141;-150;412;-40;15864
14:40:15.844;-146;-138;-136;-199;2070;-147;-147;179;412;-40;15864
14:40:15.844;-149;-140;-130;-162;2070;-148;-149;-169;544;-56;15916
14:40:15.844;-149;-141;-137;-165;2070;-153;-147;-42;544;-56;15916
14:40:15.844;-149;-142;-142;-164;2070;-153;-146;-96;544;-56;15916
14:40:15.844;-147;-141;-149;-165;2070;-153;-148;65;544;-56;15916
14:40:15.844;-147;-141;-145;-184;2066;-153;-142;-381;544;-56;15916
14:40:15.844;-151;-147;-143;-192;1973;-151;-144;-254;544;-56;15916
14:40:15.844;-150;-146;-141;-201;2070;-150;-145;-171;516;12;15868
14:40:15.844;-149;-143;-134;-203;2070;-151;-146;95;516;12;15868
14:40:15.844;-148;-143;-143;-205;1697;-151;-143;-32;516;12;15868
14:40:15.844;-149;-145;-146;-200;1669;-152;-147;95;516;12;15868
14:40:15.844;-148;-144;-144;-178;2000;-150;-145;-11;516;12;15868
14:40:15.844;-149;-143;-143;-185;1972;-150;-141;116;516;12;15868
14:40:15.844;-148;-143;-139;-191;2029;-152;-144;-278;412;56;16028
14:40:15.844;-148;-141;-145;-189;2070;-148;-145;-151;412;56;16028
14:40:15.860;-147;-141;-141;-190;2070;-148;-139;-194;412;56;16028
14:40:15.860;-148;-138;-137;-191;2070;-149;-140;245;412;56;16028
14:40:15.860;-149;-142;-136;-186;2070;-150;-141;-205;412;56;16028
14:40:15.860;-148;-139;-149;-187;2070;-149;-149;-194;412;56;16028
14:40:15.860;-148;-132;-140;-186;2070;-151;-142;-164;608;132;16288
14:40:15.860;-147;-135;-152;-189;2070;-151;-148;212;608;132;16288
14:40:15.860;-149;-139;-148;-190;2070;-151;-143;-104;608;132;16288
14:40:15.860;-149;-146;-146;-190;2070;-152;-145;23;608;132;16288
14:40:15.860;-149;-145;-134;-195;2070;-152;-152;-96;608;132;16288
14:40:15.860;-148;-147;-135;-212;1830;-153;-149;-16;608;132;16288
14:40:15.860;-148;-147;-136;-213;1774;-152;-142;-220;440;116;16204
14:40:15.860;-149;-145;-140;-210;1650;-151;-143;-93;440;116;16204
14:40:15.860;-147;-138;-156;-194;1595;-154;-144;-298;440;116;16204
14:40:15.860;-148;-131;-146;-152;1584;-151;-147;-171;440;116;16204
14:40:15.860;-148;-139;-146;-146;1497;-152;-143;-211;440;116;16204
14:40:15.860;-151;-145;-148;-174;1607;-149;-145;247;440;116;16204
14:40:15.876;-150;-144;-122;-185;1953;-148;-145;123;588;112;16036
14:40:15.876;-151;-139;-104;-192;1867;-150;-146;-4;588;112;16036
14:40:15.876;-148;-136;-148;-216;1934;-153;-142;-254;588;112;16036
14:40:15.876;-150;-137;-184;-230;2054;-150;-149;-172;588;112;16036
14:40:15.876;-148;-131;-155;-234;2070;-148;-141;-115;588;112;16036
14:40:15.876;-148;-141;-168;-206;2070;-145;-148;215;588;112;16036
14:40:15.876;-147;-143;-139;-178;2070;-145;-149;88;572;140;16232
14:40:15.876;-146;-135;-131;-142;2070;-151;-149;-39;572;140;16232
14:40:15.876;-146;-138;-149;-123;2070;-151;-139;-450;572;140;16232
14:40:15.876;-151;-146;-149;-143;2070;-152;-146;-323;572;140;16232
14:40:15.876;-146;-140;-140;-153;2070;-152;-146;-66;572;140;16232
14:40:15.876;-151;-149;-146;-181;1943;-152;-147;61;572;140;16232
14:40:15.876;-146;-140;-140;-212;1771;-150;-146;-66;540;252;16088
14:40:15.876;-144;-139;-128;-181;1898;-152;-147;61;540;252;16088
14:40:15.891;-148;-139;-123;-171;2024;-151;-141;-350;540;252;16088
14:40:15.891;-150;-140;-140;-194;1897;-150;-144;-223;540;252;16088
14:40:15.891;-147;-140;-145;-176;1689;-152;-145;-350;540;252;16088
14:40:15.891;-149;-144;-132;-199;1816;-151;-145;-223;540;252;16088
14:40:15.891;-154;-149;-148;-208;1881;-153;-142;-234;560;292;16060
14:40:15.891;-151;-142;-148;-204;2070;-147;-146;-107;560;292;16060
14:40:15.891;-148;-143;-150;-184;2070;-146;-141;-67;560;292;16060
14:40:15.891;-146;-139;-134;-205;2070;-149;-142;196;560;292;16060
14:40:15.891;-148;-141;-125;-209;2070;-148;-140;-334;560;292;16060
14:40:15.891;-149;-144;-112;-211;2070;-150;-147;-207;560;292;16060
14:40:15.891;-150;-144;-153;-167;2070;-148;-143;-41;600;240;15924
14:40:15.891;-148;-140;-151;-171;2070;-150;-147;86;600;240;15924
14:40:15.891;-143;-135;-150;-185;2070;-147;-148;221;600;240;15924
14:40:15.891;-148;-141;-153;-220;2070;-154;-140;94;600;240;15924
14:40:15.891;-150;-143;-167;-205;2070;-151;-153;117;600;240;15924
14:40:15.891;-150;-139;-163;-182;2070;-149;-146;229;600;240;15924
14:40:15.907;-152;-148;-127;-167;2070;-152;-145;-61;500;232;15824
14:40:15.907;-150;-135;-132;-99;2070;-152;-143;66;500;232;15824
14:40:15.907;-148;-143;-163;-111;2058;-153;-144;-398;500;232;15824
14:40:15.907;-153;-145;-156;-160;2070;-149;-148;-271;500;232;15824
14:40:15.907;-150;-144;-136;-179;1923;-149;-142;-224;500;232;15824
14:40:15.907;-148;-141;-137;-184;1940;-149;-142;-97;500;232;15824
14:40:15.907;-148;-142;-144;-212;1740;-151;-144;-224;664;300;15888
14:40:15.907;-148;-139;-151;-230;1764;-152;-148;-185;664;300;15888
14:40:15.907;-149;-137;-177;-239;1885;-150;-141;-247;664;300;15888
14:40:15.907;-149;-140;-146;-233;2059;-147;-149;-120;664;300;15888
14:40:15.907;-146;-135;-104;-253;2070;-145;-145;99;664;300;15888
14:40:15.907;-146;-138;-97;-251;2070;-146;-146;-28;664;300;15888
14:40:15.907;-150;-147;-116;-242;2070;-144;-146;270;476;316;15708
14:40:15.907;-151;-140;-147;-156;2070;-145;-153;143;476;316;15708
14:40:15.923;-147;-130;-171;-98;2070;-150;-141;-414;476;316;15708
14:40:15.923;-155;-140;-165;-20;2070;-150;-147;-287;476;316;15708
14:40:15.923;-151;-134;-157;-77;2070;-152;-147;87;476;316;15708
14:40:15.923;-148;-144;-154;-157;2070;-152;-144;-40;476;316;15708
14:40:15.923;-147;-146;-116;-202;2070;-149;-151;-287;476;316;15708
14:40:15.923;-145;-145;-132;-245;1943;-151;-149;-243;476;316;15708
14:40:15.923;-144;-141;-134;-233;1615;-153;-142;-262;756;200;15912
14:40:15.923;-144;-145;-111;-174;1488;-151;-146;-135;756;200;15912
14:40:15.923;-161;-155;-144;-218;1522;-150;-146;67;756;200;15912
14:40:15.923;-152;-149;-189;-180;1395;-151;-144;106;756;200;15912
14:40:15.923;-156;-142;-128;-160;1531;-150;-146;148;756;200;15912
14:40:15.923;-147;-136;-160;-191;1658;-149;-145;118;756;200;15912
14:40:15.923;-147;-134;-113;-177;1578;-148;-141;-157;488;224;15872
14:40:15.923;-146;-136;-138;-143;1705;-148;-143;-30;488;224;15872
14:40:15.939;-147;-139;-194;-153;1842;-148;-145;85;488;224;15872
14:40:15.939;-155;-148;-169;-221;1969;-150;-148;-42;488;224;15872
14:40:15.939;-149;-138;-162;-208;2062;-149;-142;-167;488;224;15872
14:40:15.939;-146;-132;-130;-194;2070;-149;-142;172;488;224;15872
14:40:15.939;-147;-143;-127;-204;2070;-146;-141;-199;620;192;15856
14:40:15.939;-149;-143;-153;-197;2070;-146;-142;-72;620;192;15856
14:40:15.939;-147;-143;-141;-191;2070;-153;-143;-372;620;192;15856
14:40:15.939;-144;-140;-155;-152;2070;-153;-150;-254;620;192;15856
14:40:15.939;-147;-136;-114;-172;2070;-155;-141;-394;620;192;15856
14:40:15.939;-150;-139;-128;-188;2003;-153;-148;-267;620;192;15856
14:40:15.939;-150;-154;-150;-205;2051;-154;-146;21;556;112;16048
14:40:15.939;-152;-145;-151;-149;1924;-154;-144;-106;556;112;16048
14:40:15.939;-150;-138;-156;-160;1912;-151;-152;-37;556;112;16048
14:40:15.939;-148;-143;-143;-179;1785;-152;-148;90;556;112;16048
14:40:15.954;-144;-143;-143;-181;1681;-152;-143;-371;556;112;16048
14:40:15.954;-149;-149;-150;-207;1808;-151;-144;-244;556;112;16048
14:40:15.954;-149;-153;-133;-242;1666;-150;-145;-117;552;112;16012
14:40:15.954;-150;-143;-139;-233;1793;-149;-146;10;552;112;16012
14:40:15.954;-149;-133;-153;-212;1780;-150;-142;-351;552;112;16012
14:40:15.954;-146;-126;-136;-155;1907;-150;-149;-224;552;112;16012
14:40:15.954;-146;-129;-135;-176;2070;-148;-144;-254;552;112;16012
14:40:15.954;-151;-149;-145;-201;2070;-147;-143;-127;552;112;16012
14:40:15.954;-151;-148;-171;-163;2070;-149;-143;-214;576;44;16076
14:40:15.954;-153;-145;-140;-176;2070;-149;-150;-217;576;44;16076
14:40:15.954;-150;-136;-133;-216;2070;-148;-146;242;576;44;16076
14:40:15.954;-150;-134;-119;-228;2070;-150;-145;115;576;44;16076
14:40:15.954;-146;-142;-158;-227;2070;-149;-147;-248;576;44;16076
14:40:15.954;-146;-130;-145;-130;1992;-152;-150;-232;576;44;16076
14:40:15.969;-147;-139;-139;-147;1767;-156;-143;-359;456;28;16112
14:40:15.969;-156;-152;-155;-133;1706;-153;-147;-232;456;28;16112
14:40:15.969;-149;-141;-144;-148;1449;-152;-143;-199;456;28;16112
14:40:15.969;-148;-137;-144;-173;1528;-152;-147;-72;456;28;16112
14:40:15.969;-149;-144;-133;-192;1437;-150;-148;-281;456;28;16112
14:40:15.969;-146;-143;-161;-200;1310;-150;-148;-236;456;28;16112
14:40:15.969;-146;-141;-148;-199;1044;-152;-143;-249;508;-4;16140
14:40:15.969;-148;-143;-126;-191;1159;-151;-148;-122;508;-4;16140
14:40:15.969;-149;-143;-140;-179;1428;-151;-142;-180;508;-4;16140
14:40:15.969;-149;-145;-136;-198;1533;-149;-142;-53;508;-4;16140
14:40:15.969;-148;-146;-138;-234;1810;-148;-145;74;508;-4;16140
14:40:15.969;-148;-143;-153;-262;1935;-147;-144;201;508;-4;16140
14:40:15.969;-148;-139;-156;-238;1711;-147;-141;74;520;-76;16032
14:40:15.969;-146;-137;-153;-174;1838;-148;-145;132;520;-76;16032
14:40:15.986;-151;-140;-147;-130;2070;-146;-145;216;520;-76;16032
14:40:15.986;-151;-138;-143;-87;2070;-149;-143;237;520;-76;16032
14:40:15.986;-153;-137;-143;-141;1997;-150;-145;17;520;-76;16032
14:40:15.986;-148;-135;-141;-182;2004;-153;-147;144;520;-76;16032
14:40:15.986;-149;-137;-107;-195;1637;-152;-142;17;512;-72;16116
14:40:15.986;-147;-140;-143;-192;1510;-151;-146;69;512;-72;16116
14:40:15.986;-147;-143;-150;-211;1761;-148;-146;-58;512;-72;16116
14:40:15.986;-147;-143;-143;-205;1634;-150;-147;69;512;-72;16116
14:40:15.986;-149;-146;-131;-200;1229;-152;-145;-58;512;-72;16116
14:40:15.986;-153;-148;-127;-189;1148;-152;-147;-185;512;-72;16116
14:40:15.986;-149;-143;-148;-217;1030;-151;-145;-10;552;-172;15884
14:40:15.986;-143;-137;-154;-247;1139;-151;-145;-27;552;-172;15884
14:40:15.986;-147;-138;-167;-219;1507;-148;-148;-144;552;-172;15884
14:40:15.986;-147;-142;-158;-209;1421;-148;-150;-266;552;-172;15884
14:40:16.001;-148;-143;-137;-157;1597;-147;-141;-359;552;-172;15884
14:40:16.001;-148;-140;-116;-128;1724;-149;-147;-232;552;-172;15884
14:40:16.001;-154;-141;-115;-155;2070;-147;-142;-111;532;-144;15900
14:40:16.001;-152;-137;-124;-173;2070;-145;-146;16;532;-144;15900
14:40:16.001;-148;-139;-167;-240;2070;-143;-149;-83;532;-144;15900
14:40:16.001;-152;-151;-203;-287;2070;-147;-147;-55;532;-144;15900
14:40:16.001;-151;-148;-163;-304;2070;-152;-141;-338;532;-144;15900
14:40:16.001;-148;-137;-134;-248;2070;-150;-147;-211;532;-144;15900
14:40:16.001;-145;-124;-151;-151;2070;-149;-141;-247;476;-188;15912
14:40:16.001;-152;-143;-173;-139;2014;-147;-142;173;476;-188;15912
14:40:16.001;-151;-142;-146;61;1887;-150;-144;46;476;-188;15912
14:40:16.001;-146;-130;-138;-27;1830;-150;-146;52;476;-188;15912
14:40:16.001;-147;-132;-139;-110;1569;-149;-143;-75;476;-188;15912
14:40:16.001;-153;-145;-140;-160;1442;-149;-144;52;476;-188;15912
14:40:16.016;-150;-146;-139;-192;1583;-150;-144;-75;488;-180;16052
14:40:16.016;-147;-145;-133;-197;1663;-152;-146;-132;488;-180;16052
14:40:16.016;-149;-145;-125;-193;1693;-151;-145;-160;488;-180;16052
14:40:16.016;-148;-139;-133;-184;2070;-147;-146;-33;488;-180;16052
14:40:16.016;-147;-141;-137;-196;2070;-146;-145;-161;488;-180;16052
14:40:16.016;-147;-142;-127;-209;2070;-147;-145;-34;488;-180;16052
14:40:16.016;-148;-142;-136;-211;2070;-147;-142;123;404;-224;15964
14:40:16.016;-149;-141;-144;-195;2070;-146;-147;203;404;-224;15964
14:40:16.016;-150;-141;-133;-192;2070;-149;-142;-110;404;-224;15964
14:40:16.016;-149;-142;-173;-197;2070;-147;-142;17;404;-224;15964
14:40:16.016;-150;-140;-170;-192;2070;-150;-141;-219;404;-224;15964
14:40:16.016;-145;-138;-132;-190;2070;-146;-147;-92;404;-224;15964
14:40:16.016;-149;-139;-136;-191;2070;-149;-142;-184;448;-348;15880
14:40:16.016;-148;-137;-155;-198;2070;-149;-148;174;448;-348;15880
14:40:16.016;-148;-139;-138;-207;2070;-152;-147;69;448;-348;15880
14:40:16.016;-148;-142;-135;-221;2070;-153;-146;116;448;-348;15880
14:40:16.016;-152;-144;-113;-213;2070;-154;-146;-127;448;-348;15880
14:40:16.032;-151;-142;-154;-197;2070;-152;-147;0;448;-348;15880
14:40:16.032;-146;-142;-137;-206;2070;-152;-142;-263;572;-260;15876
14:40:16.032;-149;-147;-152;-223;2070;-151;-143;-136;572;-260;15876
14:40:16.032;-151;-144;-144;-221;2070;-154;-144;-327;572;-260;15876
14:40:16.032;-145;-138;-126;-205;2070;-151;-147;-200;572;-260;15876
14:40:16.032;-146;-137;-115;-108;2070;-152;-143;-279;572;-260;15876
14:40:16.032;-149;-139;-146;-153;2070;-151;-148;187;572;-260;15876
14:40:16.032;-152;-144;-162;-195;2070;-149;-142;-87;520;-204;15960
14:40:16.032;-147;-137;-172;-196;2070;-148;-148;40;520;-204;15960
14:40:16.032;-146;-144;-150;-233;2070;-148;-152;124;520;-204;15960
14:40:16.032;-148;-140;-134;-254;2070;-148;-151;178;520;-204;15960
14:40:16.032;-148;-134;-148;-227;2070;-148;-144;-153;520;-204;15960
14:40:16.032;-150;-134;-146;-169;2070;-147;-146;-26;520;-204;15960
14:40:16.032;-152;-143;-156;-122;2070;-151;-147;16;504;-212;16004
14:40:16.032;-153;-146;-159;-88;2070;-152;-147;-308;504;-212;16004
14:40:16.032;-152;-143;-156;-122;2070;-151;-147;16;504;-212;16004
14:40:16.032;-150;-142;-134;-180;2035;-155;-147;-111;504;-212;16004
14:40:16.032;-147;-142;-131;-190;2003;-153;-149;-207;504;-212;16004
14:40:16.032;-147;-141;-147;-197;1791;-152;-148;-122;504;-212;16004
14:40:16.048;-149;-146;-132;-223;1725;-153;-145;-167;448;-192;15892
14:40:16.048;-153;-148;-155;-173;1598;-151;-148;150;448;-192;15892
14:40:16.048;-153;-144;-159;-147;1899;-149;-146;77;448;-192;15892
14:40:16.048;-147;-140;-145;-153;1772;-154;-145;-50;448;-192;15892
14:40:16.048;-148;-138;-155;-154;1917;-150;-148;-79;448;-192;15892
14:40:16.048;-146;-133;-126;-194;1805;-153;-146;-119;448;-192;15892
14:40:16.048;-150;-130;-128;-209;1773;-148;-139;-352;468;-168;15984
14:40:16.048;-146;-138;-152;-199;1900;-149;-145;-225;468;-168;15984
14:40:16.048;-153;-146;-164;-196;2070;-149;-144;-98;468;-168;15984
14:40:16.048;-150;-147;-165;-204;2070;-147;-144;29;468;-168;15984
14:40:16.048;-148;-145;-156;-232;2070;-143;-146;178;468;-168;15984
14:40:16.048;-149;-148;-149;-292;2070;-147;-145;66;468;-168;15984
14:40:16.048;-144;-145;-141;-305;2070;-146;-142;-153;464;-56;16096
14:40:16.048;-144;-138;-137;-237;2070;-146;-147;-34;464;-56;16096
14:40:16.063;-143;-125;-103;-171;2070;-154;-142;-387;464;-56;16096
14:40:16.063;-156;-140;-128;-69;2070;-149;-147;-260;464;-56;16096
14:40:16.063;-152;-150;-148;-33;2070;-149;-147;79;464;-56;16096
14:40:16.063;-148;-140;-146;-115;2024;-156;-146;-48;464;-56;16096
14:40:16.063;-146;-138;-156;-190;1766;-150;-147;-175;516;-100;16068
14:40:16.063;-149;-144;-160;-213;1639;-150;-146;-48;516;-100;16068
14:40:16.063;-148;-148;-149;-193;1509;-150;-144;-138;516;-100;16068
14:40:16.063;-149;-147;-126;-139;1382;-151;-147;-11;516;-100;16068
14:40:16.079;-150;-148;-135;-155;1257;-150;-142;-158;516;-100;16068
14:40:16.079;-152;-145;-127;-180;1384;-151;-142;-31;516;-100;16068
14:40:16.079;-154;-142;-122;-193;1308;-147;-146;173;548;-164;15820
14:40:16.079;-150;-136;-127;-194;1435;-149;-145;46;548;-164;15820
14:40:16.079;-149;-132;-113;-188;1877;-149;-142;-64;548;-164;15820
14:40:16.079;-148;-126;-145;-197;1958;-149;-143;63;548;-164;15820
14:40:16.079;-146;-131;-171;-203;2070;-150;-147;191;548;-164;15820
14:40:16.079;-150;-145;-162;-203;2070;-146;-143;138;548;-164;15820
14:40:16.079;-150;-144;-158;-213;2070;-150;-147;181;540;-108;16040
14:40:16.079;-151;-143;-123;-227;2070;-150;-145;-218;540;-108;16040
14:40:16.079;-144;-135;-129;-247;2070;-148;-142;-209;540;-108;16040
14:40:16.079;-152;-146;-150;-272;1982;-151;-147;-82;540;-108;16040
14:40:16.079;-150;-142;-173;-220;1973;-148;-148;88;540;-108;16040
14:40:16.079;-149;-138;-185;-224;1846;-149;-145;142;540;-108;16040
14:40:16.079;-151;-150;-146;-190;1565;-153;-146;15;480;-28;15932
14:40:16.079;-146;-146;-125;-117;1438;-153;-148;-112;480;-28;15932
14:40:16.094;-148;-137;-141;-65;1394;-153;-143;-366;480;-28;15932
14:40:16.094;-149;-137;-104;-145;1521;-149;-146;-239;480;-28;15932
14:40:16.094;-148;-139;-122;-199;1662;-150;-152;-130;480;-28;15932
14:40:16.094;-146;-141;-137;-194;1535;-153;-149;-169;480;-28;15932
14:40:16.094;-150;-145;-182;-136;1697;-149;-142;-163;536;-24;16000
14:40:16.094;-151;-140;-163;-142;1735;-151;-148;-36;536;-24;16000
14:40:16.094;-150;-141;-135;-169;1994;-148;-142;-119;536;-24;16000
14:40:16.094;-151;-139;-146;-171;2070;-150;-146;8;536;-24;16000
14:40:16.094;-150;-141;-143;-180;2070;-150;-145;266;536;-24;16000
14:40:16.094;-152;-144;-159;-171;2070;-147;-141;236;536;-24;16000
14:40:16.094;-147;-136;-155;-185;2070;-147;-141;-247;576;40;15980
14:40:16.094;-147;-141;-144;-174;2070;-151;-147;-120;576;40;15980
14:40:16.094;-147;-145;-152;-178;2070;-150;-144;24;576;40;15980
14:40:16.094;-147;-143;-152;-193;2070;-152;-148;151;576;40;15980
14:40:16.094;-150;-143;-140;-199;2070;-150;-142;-295;576;40;15980
14:40:16.094;-149;-142;-126;-197;2070;-149;-147;-168;576;40;15980
14:40:16.110;-145;-137;-128;-193;1961;-154;-149;264;460;36;15996
14:40:16.110;-147;-142;-119;-194;1834;-152;-145;141;460;36;15996
14:40:16.110;-149;-145;-127;-194;1743;-154;-145;-422;460;36;15996
14:40:16.110;-151;-147;-147;-209;1670;-151;-147;-295;460;36;15996
14:40:16.110;-152;-138;-140;-223;1562;-154;-143;-327;460;36;15996
14:40:16.110;-152;-140;-139;-208;1673;-152;-148;88;460;36;15996
14:40:16.110;-144;-138;-153;-212;2070;-150;-145;174;500;12;15968
14:40:16.110;-146;-139;-137;-191;1943;-150;-142;47;500;12;15968
14:40:16.110;-149;-141;-148;-170;2027;-151;-151;252;500;12;15968
14:40:16.110;-152;-148;-168;-167;1977;-148;-146;241;500;12;15968
14:40:16.110;-154;-144;-159;-185;2070;-150;-146;195;500;12;15968
14:40:16.110;-155;-145;-135;-205;2070;-151;-141;193;500;12;15968
14:40:16.110;-149;-143;-179;-178;2070;-147;-144;-3;500;116;15960
14:40:16.110;-149;-137;-157;-193;2070;-146;-147;124;500;116;15960
14:40:16.110;-146;-134;-139;-189;2070;-148;-146;-244;500;116;15960
14:40:16.110;-148;-136;-142;-199;2070;-151;-147;-253;500;116;15960
14:40:16.126;-150;-142;-132;-167;2070;-154;-144;-364;500;116;15960
14:40:16.126;-152;-144;-142;-192;1855;-153;-150;-237;500;116;15960
14:40:16.126;-154;-143;-138;-196;1807;-153;-141;-292;552;92;16048
14:40:16.126;-149;-146;-131;-163;1715;-151;-146;216;552;92;16048
14:40:16.126;-150;-141;-130;-170;1800;-152;-148;-10;552;92;16048
14:40:16.126;-146;-138;-124;-213;1673;-151;-146;117;552;92;16048
14:40:16.126;-147;-137;-133;-234;1205;-153;-143;-10;552;92;16048
14:40:16.126;-150;-135;-141;-242;1252;-150;-145;117;552;92;16048
14:40:16.126;-148;-135;-158;-197;1532;-152;-146;137;620;192;15956
14:40:16.126;-148;-143;-142;-198;1659;-152;-144;146;620;192;15956
14:40:16.126;-154;-150;-151;-213;1579;-150;-146;203;620;192;15956
14:40:16.126;-153;-142;-126;-226;2070;-149;-145;76;620;192;15956
14:40:16.126;-146;-138;-160;-259;2070;-149;-141;-129;620;192;15956
14:40:16.126;-143;-131;-180;-157;2070;-147;-140;-2;620;192;15956
14:40:16.141;-146;-135;-149;-80;2070;-150;-142;-206;568;96;15936
14:40:16.141;-152;-142;-149;-21;2070;-146;-147;-85;568;96;15936
14:40:16.141;-149;-140;-140;-68;2070;-151;-143;-298;568;96;15936
14:40:16.141;-148;-139;-135;-139;2070;-150;-146;-171;568;96;15936
14:40:16.141;-152;-148;-152;-171;2070;-148;-140;-228;568;96;15936
14:40:16.141;-149;-147;-147;-185;2070;-151;-141;205;568;96;15936
14:40:16.141;-149;-144;-145;-196;1970;-157;-144;-326;540;132;15908
14:40:16.141;-148;-144;-122;-202;1843;-151;-149;-218;540;132;15908
14:40:16.141;-149;-147;-126;-205;1568;-155;-145;-345;540;132;15908
14:40:16.141;-146;-142;-163;-194;1441;-154;-149;-218;540;132;15908
14:40:16.141;-145;-142;-145;-199;1485;-151;-148;208;540;132;15908
14:40:16.141;-151;-144;-139;-212;1564;-154;-144;81;540;132;15908
14:40:16.141;-149;-138;-140;-223;1902;-150;-150;-46;508;96;16000
14:40:16.141;-149;-140;-125;-224;1775;-152;-148;-173;508;96;16000
14:40:16.157;-151;-147;-156;-200;1649;-150;-144;-39;508;96;16000
14:40:16.157;-148;-148;-165;-186;1632;-150;-148;-28;508;96;16000
14:40:16.157;-148;-144;-145;-156;1771;-152;-144;-154;508;96;16000
14:40:16.157;-153;-142;-120;-164;1898;-148;-146;-27;508;96;16000
14:40:16.157;-148;-140;-174;-185;2070;-146;-148;-154;528;116;16080
14:40:16.157;-144;-141;-158;-186;2070;-148;-148;-92;528;116;16080
14:40:16.157;-147;-135;-141;-190;2070;-148;-142;33;528;116;16080
14:40:16.157;-147;-132;-150;-192;2070;-150;-146;234;528;116;16080
14:40:16.173;-148;-137;-147;-190;2070;-148;-146;130;528;116;16080
14:40:16.173;-149;-136;-139;-179;2070;-150;-147;179;528;116;16080
14:40:16.173;-149;-142;-145;-183;1994;-152;-144;-291;528;116;16080
14:40:16.173;-150;-145;-138;-192;1993;-153;-149;-164;528;116;16080
14:40:16.173;-149;-148;-131;-200;1889;-152;-145;-115;564;40;16068
14:40:16.173;-146;-146;-127;-190;1739;-154;-148;12;564;40;16068
14:40:16.173;-144;-141;-130;-186;1807;-152;-144;-337;564;40;16068
14:40:16.173;-152;-148;-138;-189;1680;-153;-144;-210;564;40;16068
14:40:16.173;-150;-144;-140;-183;1569;-152;-146;-8;564;40;16068
14:40:16.173;-149;-140;-133;-204;1442;-153;-148;-135;564;40;16068
14:40:16.173;-148;-140;-162;-216;1429;-151;-147;192;480;36;16012
14:40:16.173;-151;-137;-148;-230;1390;-151;-141;65;480;36;16012
14:40:16.173;-150;-130;-152;-222;1970;-149;-152;-38;480;36;16012
14:40:16.173;-150;-135;-156;-199;1843;-151;-150;-21;480;36;16012
14:40:16.173;-150;-144;-151;-203;2053;-151;-142;-133;480;36;16012
14:40:16.173;-149;-137;-153;-169;2070;-152;-148;-6;480;36;16012
14:40:16.189;-148;-138;-133;-172;2070;-150;-141;-294;556;40;15988
14:40:16.189;-148;-145;-124;-182;2070;-148;-146;-167;556;40;15988
14:40:16.189;-151;-150;-131;-193;2070;-148;-153;202;556;40;15988
14:40:16.189;-151;-145;-137;-190;2070;-152;-149;75;556;40;15988
14:40:16.189;-148;-142;-131;-176;2070;-150;-141;-197;556;40;15988
14:40:16.189;-147;-144;-153;-147;2070;-150;-145;-70;556;40;15988
14:40:16.189;-147;-144;-140;-101;2070;-151;-146;13;516;-12;15920
14:40:16.189;-149;-142;-178;-172;2008;-153;-147;-232;516;-12;15920
14:40:16.189;-148;-134;-173;-206;2003;-153;-144;-383;516;-12;15920
14:40:16.189;-145;-123;-143;-211;2070;-153;-147;-256;516;-12;15920
14:40:16.189;-147;-138;-154;-189;1984;-150;-153;102;516;-12;15920
14:40:16.189;-153;-141;-126;-195;1857;-152;-148;201;516;-12;15920
14:40:16.189;-155;-147;-128;-179;1890;-151;-143;-272;560;-20;15936
14:40:16.189;-151;-150;-152;-175;1763;-152;-146;-145;560;-20;15936
14:40:16.204;-151;-153;-150;-130;2070;-150;-145;-18;560;-20;15936
14:40:16.204;-148;-142;-118;-135;2070;-150;-147;109;560;-20;15936
14:40:16.204;-149;-141;-120;-200;2070;-148;-148;-105;560;-20;15936
14:40:16.204;-150;-144;-137;-248;2070;-147;-147;22;560;-20;15936
14:40:16.204;-151;-141;-141;-294;2070;-148;-145;51;508;68;16008
14:40:16.204;-150;-140;-157;-274;2070;-150;-147;1;508;68;16008
14:40:16.204;-151;-142;-124;-216;2070;-150;-144;-76;508;68;16008
14:40:16.204;-151;-140;-146;-184;2070;-147;-147;186;508;68;16008
14:40:16.204;-151;-142;-124;-47;2070;-147;-147;233;508;68;16008
14:40:16.204;-148;-134;-118;-75;2070;-152;-146;106;508;68;16008
14:40:16.204;-145;-137;-117;-167;2070;-151;-146;-17;540;-12;15848
14:40:16.204;-150;-140;-125;-222;2070;-150;-146;100;540;-12;15848
14:40:16.204;-150;-140;-177;-230;1977;-153;-145;-366;540;-12;15848
14:40:16.204;-151;-142;-183;-153;1850;-153;-145;-239;540;-12;15848
14:40:16.204;-145;-146;-184;-197;1864;-153;-145;-414;540;-12;15848
14:40:16.204;-149;-150;-138;-252;1991;-152;-146;-287;540;-12;15848
14:40:16.204;-145;-146;-131;-268;1955;-150;-148;229;472;-4;15992
14:40:16.219;-147;-143;-166;-231;1828;-151;-146;113;472;-4;15992
14:40:16.219;-150;-141;-138;-146;1766;-152;-145;55;472;-4;15992
14:40:16.219;-152;-139;-119;-23;1824;-152;-144;61;472;-4;15992
14:40:16.219;-155;-140;-163;-86;1812;-153;-143;-263;472;-4;15992
14:40:16.219;-152;-147;-157;-153;1939;-151;-148;-136;472;-4;15992
14:40:16.219;-151;-138;-151;-156;2070;-150;-145;-9;480;0;16032
14:40:16.219;-148;-141;-144;-178;2070;-147;-144;118;480;0;16032
14:40:16.219;-148;-139;-143;-171;2070;-149;-153;206;480;0;16032
14:40:16.219;-147;-139;-155;-182;2070;-146;-143;163;480;0;16032
14:40:16.219;-149;-143;-147;-196;2070;-153;-147;84;480;0;16032
14:40:16.219;-151;-144;-141;-190;2070;-151;-143;177;480;0;16032
14:40:16.219;-148;-144;-144;-202;2070;-153;-143;-324;572;-60;16016
14:40:16.219;-149;-143;-133;-218;2070;-153;-146;-197;572;-60;16016
14:40:16.219;-148;-146;-129;-227;2070;-148;-146;-280;572;-60;16016
14:40:16.219;-148;-139;-132;-221;2028;-150;-147;34;572;-60;16016
14:40:16.219;-149;-133;-130;-212;1872;-153;-144;-76;572;-60;16016
14:40:16.219;-150;-153;-133;-219;1745;-153;-147;-31;572;-60;16016
14:40:16.219;-150;-146;-134;-184;1500;-152;-145;-128;612;-28;15964
14:40:16.235;-150;-141;-163;-214;1560;-150;-144;-1;612;-28;15964
14:40:16.235;-152;-146;-177;-194;1797;-154;-146;34;612;-28;15964
14:40:16.235;-148;-146;-162;-160;1908;-148;-146;161;612;-28;15964
14:40:16.235;-147;-139;-149;-157;1804;-149;-143;-116;612;-28;15964
14:40:16.235;-147;-140;-145;-189;1931;-147;-143;11;612;-28;15964
14:40:16.235;-149;-144;-147;-220;2070;-150;-145;-116;492;8;15908
14:40:16.235;-156;-141;-155;-166;2070;-147;-145;11;492;8;15908
14:40:16.235;-147;-140;-133;-149;2070;-152;-145;-289;492;8;15908
14:40:16.235;-151;-140;-125;-164;2070;-148;-147;-162;492;8;15908
14:40:16.235;-147;-141;-133;-183;2070;-149;-139;-446;492;8;15908
14:40:16.235;-149;-141;-144;-202;2070;-148;-145;-319;492;8;15908
14:40:16.235;-150;-138;-148;-181;2070;-154;-142;-428;540;16;16240
14:40:16.235;-149;-138;-140;-182;2070;-152;-150;24;540;16;16240
14:40:16.235;-149;-143;-143;-220;2070;-151;-145;-172;540;16;16240
14:40:16.235;-149;-142;-133;-232;2070;-151;-148;-45;540;16;16240
14:40:16.235;-150;-140;-142;-228;2070;-154;-148;106;540;16;16240
14:40:16.235;-146;-139;-162;-183;2070;-149;-148;141;540;16;16240
14:40:16.235;-147;-140;-149;-133;2070;-150;-142;-426;536;-64;15916
14:40:16.235;-153;-154;-145;-135;2070;-151;-147;-299;536;-64;15916
14:40:16.251;-151;-149;-139;-179;2070;-150;-147;93;536;-64;15916
14:40:16.251;-150;-143;-147;-210;2070;-151;-145;184;536;-64;15916
14:40:16.251;-147;-140;-146;-222;2070;-151;-144;-203;536;-64;15916
14:40:16.251;-150;-142;-128;-222;2070;-149;-146;-76;536;-64;15916
14:40:16.251;-155;-147;-88;-215;2070;-151;-143;-125;532;-32;15952
14:40:16.251;-152;-146;-140;-194;2070;-149;-147;157;532;-32;15952
14:40:16.251;-148;-143;-175;-126;2070;-148;-147;250;532;-32;15952
14:40:16.251;-147;-142;-147;-145;2070;-148;-146;138;532;-32;15952
14:40:16.251;-150;-146;-122;-167;2070;-151;-144;142;532;-32;15952
14:40:16.251;-148;-143;-151;-193;2070;-151;-145;-68;532;-32;15952
14:40:16.251;-146;-146;-197;-176;2070;-149;-147;221;448;-16;16044
14:40:16.251;-145;-143;-160;-174;2070;-152;-145;94;448;-16;16044
14:40:16.251;-146;-143;-160;-187;2070;-149;-149;-158;448;-16;16044
14:40:16.251;-151;-144;-156;-217;2070;-150;-147;-164;448;-16;16044
14:40:16.266;-145;-136;-149;-209;2017;-151;-144;-163;448;-16;16044
14:40:16.266;-143;-133;-114;-214;1873;-154;-148;-36;448;-16;16044
14:40:16.266;-147;-132;-87;-175;1929;-151;-143;-246;504;-68;15996
14:40:16.266;-149;-142;-86;-183;1987;-150;-146;-119;504;-68;15996
14:40:16.266;-155;-152;-91;-227;1986;-149;-147;-151;504;-68;15996
14:40:16.266;-149;-148;-179;-256;1803;-149;-146;-140;504;-68;15996
14:40:16.266;-147;-141;-189;-236;1927;-150;-143;-329;504;-68;15996
14:40:16.266;-151;-140;-185;-237;2039;-147;-146;-202;504;-68;15996
14:40:16.266;-150;-145;-163;-240;2070;-150;-145;185;560;-80;15960
14:40:16.266;-149;-139;-130;-181;2070;-148;-143;193;560;-80;15960
14:40:16.266;-147;-132;-133;-146;2070;-146;-145;197;560;-80;15960
14:40:16.266;-151;-139;-155;-137;2070;-147;-144;95;560;-80;15960
14:40:16.266;-150;-138;-165;-120;2070;-147;-141;-55;560;-80;15960
14:40:16.266;-148;-133;-145;-98;2070;-146;-145;72;560;-80;15960
14:40:16.282;-146;-129;-163;-87;2070;-148;-146;90;520;-128;15944
14:40:16.282;-147;-141;-138;-121;2070;-149;-146;-92;520;-128;15944
14:40:16.282;-151;-145;-93;-137;2070;-152;-144;-363;520;-128;15944
14:40:16.282;-150;-147;-145;-177;2070;-151;-147;-236;520;-128;15944
14:40:16.282;-148;-141;-135;-195;2070;-151;-144;-316;520;-128;15944
14:40:16.282;-147;-140;-131;-206;2070;-152;-146;137;520;-128;15944
14:40:16.282;-147;-140;-157;-186;2070;-153;-145;-56;496;-24;16000
14:40:16.282;-151;-147;-165;-196;2070;-153;-146;-75;496;-24;16000
14:40:16.282;-151;-143;-151;-213;1923;-151;-145;-202;496;-24;16000
14:40:16.282;-152;-142;-160;-225;1835;-151;-147;-75;496;-24;16000
14:40:16.282;-148;-143;-168;-276;2070;-152;-146;52;496;-24;16000
14:40:16.282;-148;-146;-163;-294;2070;-151;-146;176;496;-24;16000
14:40:16.282;-148;-147;-148;-273;2070;-150;-143;-320;620;-64;16048
14:40:16.282;-147;-145;-128;-215;2070;-151;-146;-193;620;-64;16048
14:40:16.298;-145;-138;-132;-147;2070;-150;-146;202;620;-64;16048
14:40:16.298;-152;-143;-137;-86;2070;-150;-144;193;620;-64;16048
14:40:16.298;-156;-143;-143;-24;2070;-154;-144;-218;620;-64;16048
14:40:16.298;-147;-134;-143;-129;2070;-149;-145;-91;620;-64;16048
14:40:16.298;-149;-141;-139;-187;2070;-148;-141;-89;480;0;16136
14:40:16.298;-147;-145;-137;-228;2070;-148;-144;127;480;0;16136
14:40:16.298;-147;-143;-145;-226;2070;-151;-145;112;480;0;16136
14:40:16.298;-148;-141;-160;-198;2070;-153;-147;29;480;0;16136
14:40:16.298;-147;-137;-155;-163;2070;-156;-145;-28;480;0;16136
14:40:16.298;-147;-143;-140;-132;2058;-154;-150;-304;480;0;16136
14:40:16.313;-149;-149;-130;-168;2070;-153;-147;154;556;-12;16108
14:40:16.313;-147;-143;-132;-190;2057;-153;-144;27;556;-12;16108
14:40:16.313;-151;-141;-137;-205;1997;-151;-148;-175;556;-12;16108
14:40:16.313;-151;-147;-136;-211;1870;-151;-148;-174;556;-12;16108
14:40:16.313;-153;-146;-139;-208;1379;-152;-144;-301;556;-12;16108
14:40:16.313;-150;-144;-144;-190;1405;-152;-148;-174;556;-12;16108
14:40:16.313;-151;-148;-148;-187;1600;-152;-144;-234;536;32;16024
14:40:16.313;-151;-142;-138;-196;1727;-152;-143;-107;536;32;16024
14:40:16.313;-150;-140;-135;-187;1822;-151;-144;-270;536;32;16024
14:40:16.313;-146;-138;-110;-202;1890;-149;-146;-143;536;32;16024
14:40:16.313;-150;-140;-129;-182;1957;-148;-142;-155;536;32;16024
14:40:16.313;-151;-134;-177;-170;2070;-149;-144;175;536;32;16024
14:40:16.313;-147;-133;-164;-185;2057;-152;-144;-220;476;20;16024
14:40:16.313;-150;-139;-151;-182;2070;-150;-147;-93;476;20;16024
14:40:16.329;-150;-143;-139;-179;2070;-153;-145;-30;476;20;16024
14:40:16.329;-149;-141;-157;-180;2070;-150;-148;197;476;20;16024
14:40:16.329;-151;-142;-148;-197;2070;-148;-151;-343;476;20;16024
14:40:16.329;-149;-142;-144;-222;1943;-148;-147;-216;476;20;16024
14:40:16.329;-150;-142;-157;-229;1362;-153;-144;-343;552;-40;16004
14:40:16.329;-147;-144;-151;-219;1356;-155;-149;-266;552;-40;16004
14:40:16.329;-143;-140;-154;-199;1488;-154;-144;-289;552;-40;16004
14:40:16.329;-153;-139;-119;-153;1615;-152;-146;-162;552;-40;16004
14:40:16.329;-143;-140;-138;-140;1789;-152;-148;-35;552;-40;16004
14:40:16.329;-150;-146;-135;-161;1662;-152;-145;92;552;-40;16004
14:40:16.329;-146;-138;-124;-167;1861;-153;-147;-2;588;44;15936
14:40:16.329;-149;-137;-167;-176;1984;-149;-143;125;588;44;15936
14:40:16.329;-147;-140;-149;-198;1938;-152;-145;-244;588;44;15936
14:40:16.329;-148;-141;-138;-204;2065;-152;-147;-117;588;44;15936
14:40:16.344;-152;-144;-150;-188;2070;-153;-143;-192;588;44;15936
14:40:16.344;-149;-144;-171;-207;2070;-151;-146;219;588;44;15936
14:40:16.344;-149;-140;-159;-210;2070;-150;-148;-76;512;-32;16028
14:40:16.344;-146;-139;-134;-206;2070;-148;-145;-19;512;-32;16028
14:40:16.344;-147;-139;-107;-174;2070;-151;-139;-370;512;-32;16028
14:40:16.344;-146;-138;-117;-134;2070;-150;-148;-243;512;-32;16028
14:40:16.344;-149;-143;-117;-176;2070;-152;-143;-227;512;-32;16028
14:40:16.344;-157;-153;-171;-193;2070;-150;-146;149;512;-32;16028
14:40:16.344;-149;-143;-168;-212;2070;-151;-147;265;528;72;16000
14:40:16.344;-147;-135;-140;-164;2070;-152;-144;237;528;72;16000
14:40:16.344;-147;-128;-129;-186;2070;-150;-145;-398;528;72;16000
14:40:16.344;-149;-140;-134;-223;1943;-151;-147;-271;528;72;16000
14:40:16.344;-150;-149;-174;-208;1821;-153;-146;-209;528;72;16000
14:40:16.344;-152;-150;-175;-200;1611;-153;-148;-183;528;72;16000
14:40:16.344;-150;-148;-155;-146;1798;-153;-145;-243;520;-20;15984
14:40:16.344;-147;-144;-147;-153;1925;-151;-147;-116;520;-20;15984
14:40:16.360;-150;-147;-152;-178;2070;-151;-152;11;520;-20;15984
14:40:16.360;-150;-143;-131;-196;1943;-153;-150;-60;520;-20;15984
14:40:16.360;-148;-142;-133;-201;2070;-149;-142;-229;520;-20;15984
14:40:16.360;-148;-135;-144;-166;2070;-150;-141;-102;520;-20;15984
14:40:16.360;-147;-135;-126;-170;2070;-150;-146;133;556;84;16004
14:40:16.360;-147;-134;-143;-181;2070;-150;-149;6;556;84;16004
14:40:16.360;-147;-135;-153;-193;2070;-150;-144;-43;556;84;16004
14:40:16.360;-148;-136;-150;-196;2070;-147;-147;195;556;84;16004
14:40:16.360;-149;-141;-148;-197;2070;-148;-153;-125;556;84;16004
14:40:16.360;-150;-145;-151;-218;2070;-148;-149;2;556;84;16004
14:40:16.360;-151;-147;-142;-220;2070;-153;-147;28;496;12;15864
14:40:16.360;-149;-141;-139;-197;2070;-151;-145;214;496;12;15864
14:40:16.360;-148;-145;-127;-132;2070;-154;-146;-50;496;12;15864
14:40:16.360;-147;-141;-127;-139;2070;-153;-146;77;496;12;15864
14:40:16.360;-149;-147;-145;-214;1888;-150;-143;-50;496;12;15864
14:40:16.360;-146;-148;-143;-235;1813;-152;-142;77;496;12;15864
14:40:16.375;-145;-140;-144;-235;1513;-153;-143;-50;588;68;15780
14:40:16.375;-146;-142;-147;-199;1570;-152;-148;-177;588;68;15780
14:40:16.375;-152;-145;-146;-158;1624;-154;-144;-317;588;68;15780
14:40:16.375;-147;-139;-148;-168;1751;-152;-146;-190;588;68;15780
14:40:16.375;-153;-144;-129;-86;2070;-150;-145;-63;588;68;15780
14:40:16.375;-146;-134;-126;-158;2070;-149;-146;64;588;68;15780
14:40:16.375;-149;-133;-125;-195;2070;-150;-142;-199;564;16;15956
14:40:16.375;-149;-131;-136;-174;2070;-151;-142;-72;564;16;15956
14:40:16.375;-147;-131;-154;-188;2070;-150;-144;-244;564;16;15956
14:40:16.375;-150;-138;-164;-211;2070;-151;-144;-117;564;16;15956
14:40:16.375;-156;-149;-158;-192;2070;-153;-142;-293;564;16;15956
14:40:16.375;-155;-149;-155;-203;2070;-149;-147;-166;564;16;15956
14:40:16.375;-149;-142;-170;-208;2070;-151;-142;-280;544;44;15916
14:40:16.375;-148;-139;-162;-194;2070;-150;-142;198;544;44;15916
14:40:16.375;-150;-141;-141;-160;2070;-151;-145;-9;544;44;15916
14:40:16.375;-151;-144;-121;-124;1943;-154;-150;-136;544;44;15916
14:40:16.375;-152;-147;-119;-152;1782;-156;-143;-263;544;44;15916
14:40:16.375;-149;-145;-131;-186;1764;-154;-147;-177;544;44;15916
14:40:16.391;-152;-146;-150;-184;1763;-154;-144;-304;464;20;15840
14:40:16.391;-149;-145;-140;-185;1867;-152;-147;-177;464;20;15840
14:40:16.391;-148;-144;-127;-180;1929;-152;-147;-324;464;20;15840
14:40:16.391;-147;-144;-150;-190;1802;-152;-148;-257;464;20;15840
14:40:16.391;-149;-144;-147;-192;1658;-154;-144;-301;464;20;15840
14:40:16.391;-151;-145;-126;-192;1785;-151;-147;-174;464;20;15840
14:40:16.391;-153;-140;-128;-194;2055;-149;-145;-47;464;20;15840
14:40:16.391;-154;-137;-138;-195;2070;-147;-145;74;464;20;15840
14:40:16.391;-147;-138;-189;-201;2070;-148;-148;-161;516;36;16016
14:40:16.391;-145;-138;-182;-199;2070;-149;-147;-44;516;36;16016
14:40:16.391;-147;-141;-151;-185;2070;-148;-141;-415;516;36;16016
14:40:16.391;-149;-141;-135;-172;2070;-150;-147;-288;516;36;16016
14:40:16.391;-146;-139;-149;-190;2070;-150;-147;120;516;36;16016
14:40:16.391;-147;-138;-134;-198;2070;-151;-145;192;516;36;16016
14:40:16.391;-153;-144;-131;-204;1657;-153;-148;181;532;-96;16024
14:40:16.391;-151;-143;-110;-185;1784;-148;-146;54;532;-96;16024
14:40:16.407;-150;-138;-175;-192;1400;-151;-144;-73;532;-96;16024
14:40:16.407;-149;-141;-156;-192;1368;-151;-145;34;532;-96;16024
14:40:16.407;-146;-139;-142;-202;1263;-152;-147;-125;532;-96;16024
14:40:16.407;-148;-143;-134;-197;1176;-152;-146;2;532;-96;16024
14:40:16.407;-149;-145;-155;-187;1157;-152;-145;-36;580;-64;16028
14:40:16.407;-148;-144;-139;-180;1484;-149;-146;91;580;-64;16028
14:40:16.407;-148;-137;-122;-173;1379;-151;-143;-70;580;-64;16028
14:40:16.407;-147;-132;-155;-182;1506;-151;-143;57;580;-64;16028
14:40:16.407;-146;-136;-155;-183;1657;-151;-144;-70;580;-64;16028
14:40:16.407;-150;-141;-152;-190;1732;-150;-146;-67;580;-64;16028
14:40:16.407;-151;-147;-140;-189;1831;-151;-142;-224;472;-76;16124
14:40:16.407;-151;-144;-141;-186;1958;-150;-147;-97;472;-76;16124
14:40:16.407;-147;-141;-148;-184;2070;-149;-146;236;472;-76;16124
14:40:16.407;-149;-138;-144;-183;2070;-148;-142;109;472;-76;16124
14:40:16.407;-148;-141;-122;-192;2070;-148;-149;-111;472;-76;16124
14:40:16.407;-148;-147;-130;-196;2070;-150;-151;16;472;-76;16124
14:40:16.422;-146;-140;-118;-197;2058;-149;-143;-229;556;-80;16128
