timestamp;emg1;emg2;emg3;emg4;emg5;emg6;emg7;emg8;gyrox;gyroy;gyroz
14:38:16.334;-146;-139;-156;-188;2070;-152;-143;-338;452;228;16100
14:38:16.334;-149;-136;-144;-194;2070;-152;-148;-211;452;228;16100
14:38:16.334;-147;-141;-147;-179;2070;-151;-144;-242;452;228;16100
14:38:16.334;-144;-138;-144;-174;2070;-150;-146;161;452;228;16100
14:38:16.334;-143;-139;-141;-198;2070;-148;-147;-284;540;252;16172
14:38:16.334;-145;-143;-137;-241;2070;-150;-147;-193;540;252;16172
14:38:16.334;-145;-136;-145;-261;2070;-153;-144;-402;540;252;16172
14:38:16.334;-145;-132;-141;-180;2070;-152;-148;-275;540;252;16172
14:38:16.350;-144;-134;-129;-168;2070;-152;-142;-389;540;252;16172
14:38:16.350;-145;-144;-123;-162;1854;-153;-144;-262;540;252;16172
14:38:16.350;-148;-149;-135;-150;1807;-154;-145;-253;572;164;16096
14:38:16.350;-147;-142;-136;-163;1628;-152;-147;-126;572;164;16096
14:38:16.350;-147;-143;-133;-187;1160;-153;-144;-253;572;164;16096
14:38:16.350;-148;-143;-139;-211;1040;-152;-146;-126;572;164;16096
14:38:16.350;-146;-144;-150;-216;1429;-154;-145;-253;572;164;16096
14:38:16.350;-147;-146;-151;-192;1479;-153;-145;-126;572;164;16096
14:38:16.350;-148;-140;-141;-146;1543;-154;-144;-342;524;156;15912
14:38:16.350;-147;-138;-133;-177;1670;-151;-145;-215;524;156;15912
14:38:16.350;-144;-136;-140;-177;2070;-150;-142;-226;524;156;15912
14:38:16.350;-142;-129;-141;-182;2070;-150;-143;-99;524;156;15912
14:38:16.350;-146;-137;-150;-177;2070;-151;-143;-289;524;156;15912
14:38:16.350;-147;-138;-158;-176;2070;-151;-149;-162;524;156;15912
14:38:16.350;-148;-141;-145;-169;2070;-151;-142;-267;432;168;15900
14:38:16.350;-148;-142;-147;-167;2070;-152;-146;172;432;168;15900
14:38:16.365;-150;-140;-139;-165;2070;-152;-145;40;432;168;15900
14:38:16.365;-145;-141;-135;-160;2070;-153;-148;68;432;168;15900
14:38:16.365;-146;-141;-135;-180;2070;-153;-144;-438;432;168;15900
14:38:16.365;-146;-136;-138;-182;1943;-152;-149;-311;432;168;15900
14:38:16.365;-146;-140;-141;-190;1960;-154;-147;-111;556;200;15800
14:38:16.365;-149;-141;-139;-203;1833;-153;-145;16;556;200;15800
14:38:16.365;-148;-140;-141;-243;1574;-154;-146;-111;556;200;15800
14:38:16.365;-148;-139;-126;-250;1447;-153;-147;16;556;200;15800
14:38:16.365;-146;-137;-130;-240;1224;-153;-142;-111;556;200;15800
14:38:16.365;-146;-138;-140;-181;1351;-152;-145;16;556;200;15800
14:38:16.365;-148;-144;-155;-158;1734;-152;-146;19;620;188;16044
14:38:16.365;-148;-138;-146;-87;1861;-151;-147;-82;620;188;16044
14:38:16.381;-148;-136;-152;-72;1957;-154;-143;-209;620;188;16044
14:38:16.381;-148;-133;-158;-152;2070;-153;-149;-214;620;188;16044
14:38:16.381;-148;-137;-151;-202;2070;-151;-142;-196;620;188;16044
14:38:16.381;-146;-137;-145;-229;2070;-151;-146;159;620;188;16044
14:38:16.381;-145;-142;-144;-228;2070;-149;-150;-222;460;92;16192
14:38:16.381;-145;-139;-136;-233;2070;-151;-148;-218;460;92;16192
14:38:16.381;-143;-141;-127;-255;2070;-152;-140;-453;460;92;16192
14:38:16.381;-143;-134;-134;-218;2070;-151;-145;-326;460;92;16192
14:38:16.381;-144;-134;-148;-66;2070;-153;-147;-199;460;92;16192
14:38:16.381;-149;-141;-152;-129;2070;-154;-145;-72;460;92;16192
14:38:16.381;-144;-134;-148;-66;2070;-153;-147;97;480;76;16264
14:38:16.381;-148;-139;-143;-122;2070;-153;-146;-30;480;76;16264
14:38:16.381;-148;-148;-142;-164;2070;-153;-142;-373;480;76;16264
14:38:16.381;-150;-149;-139;-190;2070;-152;-144;-246;480;76;16264
14:38:16.381;-148;-146;-135;-194;1850;-153;-145;-343;480;76;16264
14:38:16.381;-146;-141;-135;-191;1756;-154;-147;-310;480;76;16264
14:38:16.381;-147;-139;-136;-187;1713;-151;-146;109;424;104;16116
14:38:16.381;-146;-139;-124;-188;1840;-152;-144;-18;424;104;16116
14:38:16.381;-146;-141;-133;-190;2070;-152;-144;-145;424;104;16116
14:38:16.396;-145;-139;-154;-198;2070;-152;-145;-18;424;104;16116
14:38:16.396;-145;-139;-139;-212;2070;-151;-141;-264;424;104;16116
14:38:16.396;-146;-139;-145;-205;2070;-151;-149;-137;424;104;16116
14:38:16.396;-144;-140;-142;-190;2070;-153;-145;-70;580;0;15776
14:38:16.396;-147;-138;-155;-176;2070;-149;-146;168;580;0;15776
14:38:16.396;-144;-140;-142;-185;2070;-151;-145;218;580;0;15776
14:38:16.396;-143;-139;-126;-250;2070;-151;-147;-138;580;0;15776
14:38:16.396;-142;-136;-140;-258;2070;-154;-143;-371;580;0;15776
14:38:16.396;-145;-137;-143;-222;2070;-154;-148;-244;580;0;15776
14:38:16.396;-141;-131;-143;-147;2037;-153;-145;-243;580;0;15776
14:38:16.396;-147;-131;-142;-124;1882;-154;-146;-116;580;0;15776
14:38:16.396;-150;-154;-124;-168;1741;-154;-147;-26;552;12;15824
14:38:16.396;-151;-151;-130;-209;1614;-153;-147;101;552;12;15824
14:38:16.396;-146;-141;-133;-216;1255;-153;-145;-26;552;12;15824
14:38:16.396;-146;-140;-146;-253;1355;-152;-145;101;552;12;15824
14:38:16.412;-146;-140;-153;-198;1092;-152;-144;-26;552;12;15824
14:38:16.412;-145;-135;-154;-122;1219;-153;-146;-125;552;12;15824
14:38:16.412;-150;-133;-141;-159;1445;-152;-144;-252;520;-80;15956
14:38:16.412;-146;-134;-148;-118;1565;-151;-147;-125;520;-80;15956
14:38:16.412;-149;-134;-130;-133;1903;-149;-146;2;520;-80;15956
14:38:16.412;-146;-138;-143;-111;1911;-150;-144;-52;520;-80;15956
14:38:16.412;-149;-149;-153;-127;2070;-149;-148;21;520;-80;15956
14:38:16.412;-149;-142;-139;-181;2070;-150;-147;148;520;-80;15956
14:38:16.412;-147;-141;-140;-202;2070;-151;-147;117;508;-60;16128
14:38:16.412;-147;-142;-146;-183;2070;-151;-143;182;508;-60;16128
14:38:16.412;-146;-137;-160;-208;2069;-152;-146;114;508;-60;16128
14:38:16.412;-145;-138;-141;-185;2070;-152;-146;-333;508;-60;16128
14:38:16.412;-145;-136;-146;-175;1872;-153;-144;-265;508;-60;16128
14:38:16.412;-146;-142;-130;-199;1844;-151;-148;-138;508;-60;16128
14:38:16.412;-144;-138;-123;-183;1798;-152;-147;-164;496;-52;16012
14:38:16.427;-142;-132;-146;-188;1510;-154;-147;-129;496;-52;16012
14:38:16.427;-149;-136;-157;-173;1308;-154;-146;-192;496;-52;16012
14:38:16.427;-147;-144;-143;-167;1181;-153;-147;-262;496;-52;16012
14:38:16.427;-153;-146;-120;-147;1160;-153;-147;-20;496;-52;16012
14:38:16.427;-146;-140;-128;-173;1095;-153;-145;-147;496;-52;16012
14:38:16.427;-146;-141;-138;-227;1461;-150;-148;-246;524;-136;15952
14:38:16.427;-147;-140;-143;-256;1465;-152;-146;-119;524;-136;15952
14:38:16.427;-147;-142;-140;-240;1648;-152;-145;-148;524;-136;15952
14:38:16.427;-148;-141;-135;-201;1761;-151;-148;-21;524;-136;15952
14:38:16.427;-148;-145;-133;-160;2070;-151;-147;106;524;-136;15952
14:38:16.427;-147;-142;-140;-169;2070;-153;-144;-21;524;-136;15952
14:38:16.427;-146;-135;-144;-166;2070;-150;-147;-70;492;-68;15756
14:38:16.427;-144;-131;-156;-146;2070;-149;-147;-114;492;-68;15756
14:38:16.427;-147;-139;-166;-139;2070;-150;-142;-179;492;-68;15756
14:38:16.427;-145;-136;-153;-160;2070;-151;-146;100;492;-68;15756
14:38:16.443;-146;-142;-143;-187;2070;-152;-147;37;492;-68;15756
14:38:16.443;-146;-141;-140;-187;2035;-152;-147;12;492;-68;15756
14:38:16.443;-150;-140;-136;-187;1792;-152;-147;127;516;-132;15824
14:38:16.443;-146;-141;-136;-197;1665;-152;-147;0;516;-132;15824
14:38:16.443;-146;-139;-132;-204;1316;-152;-146;-127;516;-132;15824
14:38:16.443;-146;-138;-132;-206;1225;-152;-148;-92;516;-132;15824
14:38:16.443;-147;-141;-140;-193;1178;-154;-147;-160;516;-132;15824
14:38:16.443;-148;-142;-149;-184;1207;-153;-147;-171;516;-132;15824
14:38:16.443;-150;-141;-145;-166;1260;-153;-145;-235;536;-172;16004
14:38:16.443;-147;-143;-142;-196;1579;-150;-147;-108;536;-172;16004
14:38:16.443;-147;-138;-144;-200;1828;-151;-146;-199;536;-172;16004
14:38:16.443;-145;-136;-141;-188;1887;-150;-146;-72;536;-172;16004
14:38:16.459;-145;-133;-145;-170;2070;-149;-143;-98;536;-172;16004
14:38:16.459;-143;-128;-145;-154;2070;-151;-147;29;536;-172;16004
14:38:16.459;-146;-138;-147;-204;2070;-151;-143;-201;412;-172;15984
14:38:16.459;-149;-140;-151;-246;2070;-149;-144;-74;412;-172;15984
14:38:16.459;-145;-140;-149;-215;2070;-148;-145;132;412;-172;15984
14:38:16.459;-144;-139;-135;-200;2070;-150;-146;159;412;-172;15984
14:38:16.459;-142;-136;-122;-171;2070;-153;-143;-252;412;-172;15984
14:38:16.459;-145;-135;-113;-116;2070;-153;-144;-125;412;-172;15984
14:38:16.459;-148;-142;-151;-112;2070;-153;-145;-307;464;-200;16056
14:38:16.459;-145;-136;-133;-193;2070;-154;-148;-180;464;-200;16056
14:38:16.459;-148;-135;-125;-222;1981;-154;-146;-257;464;-200;16056
14:38:16.459;-144;-143;-122;-237;1827;-155;-148;-159;464;-200;16056
14:38:16.459;-148;-141;-157;-213;1762;-154;-147;32;464;-200;16056
14:38:16.459;-146;-142;-156;-153;1635;-154;-147;-95;464;-200;16056
14:38:16.459;-147;-142;-162;-139;1459;-152;-148;-16;452;-156;16060
14:38:16.459;-148;-142;-164;-189;1332;-153;-148;-53;452;-156;16060
14:38:16.474;-145;-134;-160;-176;1332;-153;-144;-149;452;-156;16060
14:38:16.474;-147;-134;-146;-140;1626;-152;-146;-22;452;-156;16060
14:38:16.474;-148;-140;-130;-206;2070;-151;-145;105;452;-156;16060
14:38:16.474;-148;-141;-130;-207;2070;-152;-145;194;452;-156;16060
14:38:16.474;-147;-135;-147;-169;2070;-151;-143;-308;528;-192;15932
14:38:16.474;-146;-137;-136;-151;2070;-150;-147;-181;528;-192;15932
14:38:16.474;-147;-139;-149;-149;2070;-151;-141;-103;528;-192;15932
14:38:16.474;-147;-136;-153;-193;2070;-152;-144;143;528;-192;15932
14:38:16.474;-148;-142;-142;-242;2070;-153;-146;53;528;-192;15932
14:38:16.474;-146;-143;-139;-230;2070;-151;-147;156;528;-192;15932
14:38:16.474;-147;-142;-141;-210;2070;-150;-144;-250;424;-128;15828
14:38:16.474;-145;-137;-136;-184;2070;-151;-147;-123;424;-128;15828
14:38:16.474;-146;-136;-131;-156;2070;-153;-148;-221;424;-128;15828
14:38:16.474;-146;-140;-121;-124;1872;-153;-147;-94;424;-128;15828
14:38:16.490;-148;-141;-127;-148;1597;-153;-146;-191;424;-128;15828
14:38:16.490;-149;-144;-140;-175;1508;-153;-147;-252;424;-128;15828
14:38:16.490;-145;-138;-140;-190;1543;-152;-147;128;568;-148;16052
14:38:16.490;-149;-142;-152;-209;1670;-152;-145;1;568;-148;16052
14:38:16.490;-150;-142;-151;-215;2070;-152;-148;-126;568;-148;16052
14:38:16.490;-146;-137;-138;-166;2070;-151;-147;-146;568;-148;16052
14:38:16.490;-148;-140;-145;-169;2070;-152;-144;-317;568;-148;16052
14:38:16.490;-146;-140;-149;-162;2070;-151;-147;-190;568;-148;16052
14:38:16.490;-144;-135;-143;-175;2070;-150;-143;-160;532;-244;16100
14:38:16.490;-145;-139;-136;-214;2070;-149;-147;117;532;-244;16100
14:38:16.490;-143;-138;-143;-214;2070;-148;-149;-196;532;-244;16100
14:38:16.490;-146;-139;-165;-152;2070;-149;-147;-138;532;-244;16100
14:38:16.490;-145;-129;-150;-156;2070;-151;-142;-323;532;-244;16100
14:38:16.490;-145;-125;-139;-167;2070;-149;-147;-196;532;-244;16100
14:38:16.506;-142;-127;-141;-199;2070;-150;-146;52;488;-188;16032
14:38:16.506;-146;-141;-142;-217;2070;-152;-145;141;488;-188;16032
14:38:16.506;-153;-151;-136;-231;2070;-154;-145;-340;488;-188;16032
14:38:16.506;-148;-153;-124;-229;2058;-153;-148;-213;488;-188;16032
14:38:16.506;-149;-147;-126;-197;1752;-152;-144;-247;488;-188;16032
14:38:16.506;-144;-133;-150;-113;1719;-152;-146;-120;488;-188;16032
14:38:16.506;-147;-136;-158;-104;1738;-152;-145;-334;484;-212;16060
14:38:16.506;-147;-136;-142;-149;1611;-153;-147;-207;484;-212;16060
14:38:16.506;-147;-146;-137;-178;1695;-154;-145;-168;484;-212;16060
14:38:16.506;-148;-146;-138;-175;2070;-153;-147;-41;484;-212;16060
14:38:16.506;-145;-142;-136;-180;2070;-150;-146;-229;484;-212;16060
14:38:16.506;-146;-138;-143;-184;2070;-150;-147;-102;484;-212;16060
14:38:16.506;-146;-139;-147;-185;2070;-150;-144;-15;480;-80;15880
14:38:16.506;-146;-139;-143;-171;2070;-150;-147;141;480;-80;15880
14:38:16.522;-145;-140;-135;-183;2070;-151;-143;-126;480;-80;15880
14:38:16.522;-146;-134;-156;-181;2070;-151;-142;1;480;-80;15880
14:38:16.522;-150;-136;-144;-186;2070;-150;-144;178;480;-80;15880
14:38:16.522;-144;-136;-138;-194;2070;-148;-147;172;480;-80;15880
14:38:16.522;-143;-137;-139;-208;2070;-150;-144;-139;468;-48;15864
14:38:16.522;-147;-140;-135;-223;2070;-152;-149;-12;468;-48;15864
14:38:16.522;-146;-141;-132;-217;2070;-149;-147;-310;468;-48;15864
14:38:16.522;-148;-141;-130;-202;2070;-152;-147;-183;468;-48;15864
14:38:16.522;-147;-141;-144;-144;1997;-154;-146;-74;468;-48;15864
14:38:16.522;-150;-143;-146;-174;1870;-152;-147;53;468;-48;15864
14:38:16.522;-147;-147;-136;-183;1377;-153;-145;-74;516;-20;16076
14:38:16.522;-145;-141;-135;-200;1336;-152;-145;53;516;-20;16076
14:38:16.522;-146;-138;-134;-204;1324;-152;-146;28;516;-20;16076
14:38:16.522;-145;-137;-115;-203;1189;-153;-148;-90;516;-20;16076
14:38:16.537;-145;-137;-154;-219;1295;-152;-146;-57;516;-20;16076
14:38:16.537;-144;-139;-144;-198;1380;-152;-148;-63;516;-20;16076
14:38:16.537;-148;-141;-145;-198;1657;-152;-144;-132;476;-144;15864
14:38:16.537;-147;-146;-144;-206;1784;-150;-146;-5;476;-144;15864
14:38:16.537;-147;-140;-148;-114;2070;-148;-147;-132;476;-144;15864
14:38:16.537;-146;-134;-159;-131;2070;-149;-145;-103;476;-144;15864
14:38:16.537;-145;-135;-144;-168;2070;-150;-140;-367;476;-144;15864
14:38:16.537;-146;-141;-154;-194;2070;-148;-146;-240;476;-144;15864
14:38:16.537;-145;-137;-114;-157;2070;-150;-147;155;528;-116;16004
14:38:16.537;-148;-140;-131;-196;2070;-150;-145;164;528;-116;16004
14:38:16.537;-145;-137;-114;-157;2070;-150;-147;155;528;-116;16004
14:38:16.537;-145;-142;-141;-176;2070;-151;-146;-11;528;-116;16004
14:38:16.537;-146;-136;-154;-179;1916;-151;-143;-138;528;-116;16004
14:38:16.537;-146;-141;-155;-181;1789;-152;-147;-50;528;-116;16004
14:38:16.553;-146;-142;-153;-187;1388;-155;-146;-103;456;-32;16036
14:38:16.553;-149;-138;-150;-175;1261;-154;-147;-230;456;-32;16036
14:38:16.553;-146;-142;-145;-227;1458;-153;-146;-103;456;-32;16036
14:38:16.553;-144;-140;-140;-291;1477;-153;-145;-79;456;-32;16036
14:38:16.553;-145;-140;-139;-299;1605;-153;-146;-206;456;-32;16036
14:38:16.553;-142;-137;-138;-245;1564;-153;-146;-79;456;-32;16036
14:38:16.553;-142;-129;-143;-89;1461;-152;-143;-206;580;-4;16036
14:38:16.553;-142;-129;-126;-60;1588;-154;-147;-79;580;-4;16036
14:38:16.553;-152;-145;-127;-132;1931;-152;-142;-206;580;-4;16036
14:38:16.553;-147;-136;-151;-178;2058;-151;-143;-79;580;-4;16036
14:38:16.553;-147;-136;-145;-179;2038;-151;-146;184;580;-4;16036
14:38:16.553;-147;-141;-142;-150;2070;-150;-143;57;580;-4;16036
14:38:16.553;-148;-140;-150;-104;2070;-150;-140;-140;548;108;15980
14:38:16.553;-145;-139;-149;-131;2070;-150;-140;-13;548;108;15980
14:38:16.568;-146;-138;-140;-159;2070;-154;-145;-331;548;108;15980
14:38:16.568;-150;-144;-140;-178;2070;-152;-146;-204;548;108;15980
14:38:16.568;-148;-147;-148;-187;1894;-152;-146;-77;548;108;15980
14:38:16.568;-145;-141;-141;-180;2021;-154;-145;-204;548;108;15980
14:38:16.568;-145;-139;-139;-190;1535;-153;-143;-331;488;156;15892
14:38:16.568;-146;-142;-138;-198;1445;-152;-144;-204;488;156;15892
14:38:16.568;-146;-144;-137;-202;1076;-154;-144;-331;488;156;15892
14:38:16.568;-147;-141;-135;-196;1203;-153;-149;-321;488;156;15892
14:38:16.568;-149;-137;-134;-203;1209;-153;-144;-318;488;156;15892
14:38:16.568;-145;-133;-142;-200;1214;-153;-148;73;488;156;15892
14:38:16.568;-148;-138;-139;-202;1804;-150;-146;159;548;16;15968
14:38:16.568;-148;-140;-149;-202;1677;-151;-145;32;548;16;15968
14:38:16.568;-146;-138;-144;-210;1893;-150;-150;-95;548;16;15968
14:38:16.568;-145;-136;-134;-194;1926;-152;-147;32;548;16;15968
14:38:16.568;-144;-134;-136;-203;2053;-151;-146;159;548;16;15968
14:38:16.568;-151;-138;-136;-180;2070;-152;-141;193;548;16;15968
14:38:16.584;-146;-133;-142;-166;2070;-151;-144;-192;480;76;15932
14:38:16.584;-144;-136;-140;-128;2070;-151;-146;-65;480;76;15932
14:38:16.584;-144;-135;-147;-129;2070;-151;-141;-178;480;76;15932
14:38:16.584;-148;-143;-156;-176;2070;-152;-147;134;480;76;15932
14:38:16.584;-145;-143;-151;-185;2070;-151;-144;-384;480;76;15932
14:38:16.584;-146;-136;-149;-187;2070;-153;-146;-257;480;76;15932
14:38:16.584;-149;-139;-142;-207;1858;-153;-145;-384;580;180;15912
14:38:16.584;-148;-144;-136;-195;1731;-154;-148;-310;580;180;15912
14:38:16.584;-149;-142;-134;-191;1523;-153;-146;-183;580;180;15912
14:38:16.584;-145;-145;-129;-193;1650;-153;-145;-310;580;180;15912
14:38:16.584;-147;-142;-122;-177;1778;-153;-147;-327;580;180;15912
14:38:16.584;-145;-138;-131;-206;1651;-153;-148;-287;580;180;15912
14:38:16.584;-144;-127;-134;-167;1538;-154;-144;-356;524;120;16000
14:38:16.584;-147;-142;-146;-210;1789;-152;-147;-229;524;120;16000
14:38:16.599;-146;-140;-150;-231;2057;-151;-146;-102;524;120;16000
14:38:16.599;-149;-144;-151;-184;2070;-152;-143;-229;524;120;16000
14:38:16.599;-146;-143;-148;-163;2070;-151;-150;-194;524;120;16000
14:38:16.599;-145;-135;-140;-160;2070;-150;-149;-210;524;120;16000
14:38:16.599;-146;-132;-130;-171;2070;-151;-137;-389;464;160;15984
14:38:16.599;-146;-137;-139;-178;2070;-150;-142;-262;464;160;15984
14:38:16.599;-148;-139;-159;-197;2070;-151;-146;-193;464;160;15984
14:38:16.599;-146;-133;-149;-238;2070;-151;-145;13;464;160;15984
14:38:16.599;-145;-142;-149;-271;2070;-151;-147;125;464;160;15984
14:38:16.599;-145;-138;-137;-228;2070;-151;-147;-123;464;160;15984
14:38:16.599;-143;-135;-138;-193;2070;-152;-142;-237;556;116;16028
14:38:16.599;-144;-141;-133;-161;2070;-152;-145;38;556;116;16028
14:38:16.599;-144;-137;-122;-87;1635;-153;-146;-89;556;116;16028
14:38:16.599;-145;-146;-112;-147;1508;-153;-148;-216;556;116;16028
14:38:16.599;-147;-133;-131;-141;1279;-154;-144;-343;556;116;16028
14:38:16.599;-147;-140;-144;-179;1406;-151;-147;-216;556;116;16028
14:38:16.615;-149;-146;-146;-187;1341;-151;-144;-308;512;28;15968
14:38:16.615;-149;-146;-158;-219;1375;-151;-143;173;512;28;15968
14:38:16.615;-149;-139;-146;-228;1349;-151;-144;-298;512;28;15968
14:38:16.615;-147;-143;-156;-216;1476;-152;-148;-171;512;28;15968
14:38:16.615;-147;-137;-151;-159;1636;-152;-143;-114;512;28;15968
14:38:16.615;-149;-138;-145;-135;1763;-150;-146;13;512;28;15968
14:38:16.615;-146;-136;-144;-113;2070;-149;-146;140;620;64;15920
14:38:16.615;-145;-133;-142;-155;2070;-148;-142;13;620;64;15920
14:38:16.615;-146;-133;-149;-148;2070;-147;-153;-64;620;64;15920
14:38:16.615;-145;-138;-145;-180;2070;-152;-148;196;620;64;15920
14:38:16.615;-145;-140;-147;-196;2070;-148;-140;-275;620;64;15920
14:38:16.615;-146;-141;-147;-206;2070;-151;-143;-148;620;64;15920
14:38:16.615;-149;-142;-141;-209;2070;-154;-146;-351;528;64;15896
14:38:16.615;-145;-134;-148;-191;2061;-152;-149;-224;528;64;15896
14:38:16.615;-146;-132;-134;-174;1407;-154;-144;-180;528;64;15896
14:38:16.615;-145;-141;-134;-181;1280;-154;-149;-53;528;64;15896
14:38:16.615;-146;-144;-131;-184;1240;-152;-143;-425;528;64;15896
14:38:16.615;-146;-144;-128;-196;1297;-152;-144;-298;528;64;15896
14:38:16.630;-146;-138;-137;-191;946;-152;-145;-289;508;124;15976
14:38:16.630;-147;-137;-152;-193;1008;-153;-147;-162;508;124;15976
14:38:16.630;-148;-138;-155;-232;1112;-152;-146;165;508;124;15976
14:38:16.630;-145;-137;-147;-226;1239;-151;-145;190;508;124;15976
14:38:16.630;-145;-138;-133;-174;1606;-152;-141;63;508;124;15976
14:38:16.630;-146;-144;-127;-162;1733;-151;-139;168;508;124;15976
14:38:16.630;-148;-144;-143;-175;2070;-151;-142;41;540;104;15904
14:38:16.630;-148;-141;-146;-135;2070;-150;-147;-77;540;104;15904
14:38:16.630;-148;-143;-154;-128;2070;-152;-142;-315;540;104;15904
14:38:16.630;-147;-145;-148;-161;2070;-148;-145;-188;540;104;15904
14:38:16.630;-147;-138;-141;-191;2070;-149;-141;-293;540;104;15904
14:38:16.630;-144;-133;-142;-193;2070;-150;-142;-166;540;104;15904
14:38:16.630;-146;-133;-138;-205;2070;-151;-145;-398;540;104;15904
14:38:16.630;-144;-133;-131;-206;2043;-153;-149;-286;540;104;15904
14:38:16.646;-142;-131;-139;-193;1940;-153;-144;-299;564;84;16092
14:38:16.646;-144;-135;-152;-176;1641;-152;-149;-172;564;84;16092
14:38:16.646;-146;-139;-154;-178;1489;-153;-147;-45;564;84;16092
14:38:16.646;-150;-147;-140;-178;1380;-153;-147;-110;564;84;16092
14:38:16.646;-146;-142;-136;-178;1433;-151;-152;-201;564;84;16092
14:38:16.646;-147;-144;-138;-174;1156;-152;-150;-74;564;84;16092
14:38:16.646;-148;-143;-137;-181;1386;-151;-143;-201;440;-20;15944
14:38:16.646;-147;-144;-142;-182;1395;-152;-144;-74;440;-20;15944
14:38:16.646;-146;-137;-145;-200;1708;-152;-145;-201;440;-20;15944
14:38:16.646;-147;-137;-143;-194;1835;-150;-146;-74;440;-20;15944
14:38:16.646;-148;-139;-149;-183;2026;-150;-143;-201;440;-20;15944
14:38:16.646;-145;-139;-143;-188;2070;-150;-145;-74;440;-20;15944
14:38:16.646;-147;-137;-140;-193;2070;-149;-147;197;524;0;15988
14:38:16.646;-145;-136;-136;-225;2070;-148;-145;70;524;0;15988
14:38:16.662;-146;-138;-127;-214;2070;-150;-143;-247;524;0;15988
14:38:16.662;-146;-141;-127;-200;2070;-153;-150;-217;524;0;15988
14:38:16.662;-146;-135;-146;-176;2070;-152;-141;-289;524;0;15988
14:38:16.662;-145;-137;-140;-171;2070;-151;-148;62;524;0;15988
14:38:16.662;-147;-142;-144;-110;2070;-151;-149;-248;560;24;15956
14:38:16.662;-147;-140;-146;-136;1943;-152;-147;-188;560;24;15956
14:38:16.662;-146;-141;-136;-185;1704;-152;-142;-315;560;24;15956
14:38:16.662;-146;-141;-143;-207;1577;-154;-148;-188;560;24;15956
14:38:16.662;-143;-140;-141;-214;1552;-153;-143;-280;560;24;15956
14:38:16.662;-150;-143;-118;-204;1587;-153;-146;-35;560;24;15956
14:38:16.662;-143;-141;-130;-199;1392;-152;-151;92;548;-36;15924
14:38:16.662;-146;-142;-159;-201;1265;-153;-149;80;548;-36;15924
14:38:16.662;-146;-144;-154;-203;1381;-152;-143;-99;548;-36;15924
14:38:16.662;-148;-136;-161;-200;1508;-152;-144;28;548;-36;15924
14:38:16.678;-148;-137;-147;-203;1819;-152;-145;-2;548;-36;15924
14:38:16.678;-144;-132;-137;-143;1946;-151;-146;-75;548;-36;15924
14:38:16.678;-147;-137;-126;-116;2070;-151;-142;-306;532;-40;16028
14:38:16.678;-144;-138;-135;-170;2070;-149;-145;-179;532;-40;16028
14:38:16.678;-146;-139;-140;-189;2070;-147;-148;-136;532;-40;16028
14:38:16.678;-145;-143;-137;-201;2070;-149;-147;-28;532;-40;16028
14:38:16.678;-144;-138;-164;-196;2070;-150;-144;-143;532;-40;16028
14:38:16.678;-145;-139;-155;-177;2070;-152;-148;89;532;-40;16028
14:38:16.678;-146;-143;-142;-151;1707;-152;-146;157;492;-60;16160
14:38:16.678;-148;-139;-144;-127;1834;-152;-144;193;492;-60;16160
14:38:16.678;-146;-143;-142;-151;1707;-152;-146;157;492;-60;16160
14:38:16.678;-146;-138;-129;-193;1857;-153;-146;30;492;-60;16160
14:38:16.678;-147;-140;-131;-219;1401;-153;-144;-97;492;-60;16160
14:38:16.678;-148;-145;-140;-236;1377;-152;-145;30;492;-60;16160
14:38:16.693;-146;-143;-142;-218;1157;-153;-146;-97;540;-68;16036
14:38:16.693;-145;-135;-140;-206;1279;-153;-147;-128;540;-68;16036
14:38:16.693;-146;-130;-150;-148;1590;-151;-146;-1;540;-68;16036
14:38:16.693;-143;-129;-143;-118;1717;-151;-146;84;540;-68;16036
14:38:16.693;-150;-143;-120;-162;2056;-150;-142;-43;540;-68;16036
14:38:16.693;-149;-146;-139;-220;2070;-148;-142;84;540;-68;16036
14:38:16.693;-147;-143;-148;-229;2070;-152;-142;-360;496;-64;15892
14:38:16.693;-147;-141;-148;-218;2070;-151;-147;-233;496;-64;15892
14:38:16.693;-149;-138;-144;-190;2070;-151;-141;-109;496;-64;15892
14:38:16.693;-146;-138;-145;-117;2070;-148;-147;184;496;-64;15892
14:38:16.693;-145;-138;-134;-93;2070;-149;-145;204;496;-64;15892
14:38:16.693;-147;-137;-133;-169;2070;-151;-144;-129;496;-64;15892
14:38:16.693;-145;-138;-136;-230;2070;-152;-150;35;544;-120;15844
14:38:16.693;-146;-143;-150;-269;2070;-151;-149;162;544;-120;15844
14:38:16.709;-144;-138;-155;-230;2014;-154;-143;-156;544;-120;15844
14:38:16.709;-146;-135;-150;-192;1887;-154;-144;-29;544;-120;15844
14:38:16.709;-145;-144;-157;-191;1530;-153;-146;98;544;-120;15844
14:38:16.709;-146;-137;-146;-174;1494;-151;-146;141;544;-120;15844
14:38:16.709;-144;-133;-130;-187;1093;-155;-144;14;564;-76;16008
14:38:16.709;-141;-131;-124;-168;1024;-153;-148;124;564;-76;16008
14:38:16.709;-144;-131;-124;-159;1292;-152;-145;-3;564;-76;16008
14:38:16.709;-146;-140;-134;-130;1419;-153;-145;124;564;-76;16008
14:38:16.709;-151;-147;-147;-109;1561;-153;-145;-3;564;-76;16008
14:38:16.709;-150;-153;-155;-151;1688;-153;-145;-87;564;-76;16008
14:38:16.709;-150;-141;-147;-172;1910;-151;-145;40;468;-144;16008
14:38:16.709;-145;-134;-140;-172;2037;-151;-143;-87;468;-144;16008
14:38:16.709;-145;-139;-145;-217;2070;-150;-148;-216;468;-144;16008
14:38:16.709;-148;-140;-147;-208;2070;-150;-146;-89;468;-144;16008
14:38:16.725;-147;-137;-149;-198;2070;-151;-144;20;468;-144;16008
14:38:16.725;-148;-143;-144;-192;2070;-150;-148;149;468;-144;16008
14:38:16.725;-146;-138;-142;-183;2070;-150;-146;210;492;-56;15972
14:38:16.725;-145;-139;-133;-190;2070;-152;-144;-50;492;-56;15972
14:38:16.725;-147;-142;-131;-187;2070;-150;-149;-64;492;-56;15972
14:38:16.725;-146;-138;-144;-188;2048;-153;-148;-90;492;-56;15972
14:38:16.725;-144;-138;-142;-200;2024;-153;-143;-196;492;-56;15972
14:38:16.725;-146;-138;-136;-208;1742;-153;-145;-69;492;-56;15972
14:38:16.725;-150;-141;-143;-168;1581;-153;-147;-5;544;-164;16012
14:38:16.725;-143;-131;-140;-171;1454;-153;-146;82;544;-164;16012
14:38:16.725;-149;-139;-136;-175;1501;-151;-148;213;544;-164;16012
14:38:16.725;-147;-144;-140;-166;1570;-152;-146;105;544;-164;16012
14:38:16.725;-148;-143;-136;-176;1487;-152;-145;-145;544;-164;16012
14:38:16.725;-146;-138;-136;-191;1533;-151;-147;-18;544;-164;16012
14:38:16.740;-146;-139;-155;-188;1751;-152;-146;-22;512;-96;15884
14:38:16.740;-153;-142;-147;-192;1878;-151;-146;-16;512;-96;15884
14:38:16.740;-143;-138;-138;-207;2070;-151;-144;-66;512;-96;15884
14:38:16.740;-149;-138;-143;-217;2070;-149;-146;61;512;-96;15884
14:38:16.740;-143;-135;-144;-198;2070;-149;-147;-126;512;-96;15884
14:38:16.740;-141;-129;-146;-140;2070;-150;-146;-88;512;-96;15884
14:38:16.740;-143;-131;-139;-146;2070;-152;-139;-373;468;-128;16036
14:38:16.740;-146;-142;-140;-176;2070;-151;-145;-246;468;-128;16036
14:38:16.740;-147;-143;-145;-180;2070;-152;-146;-2;468;-128;16036
14:38:16.740;-147;-139;-131;-190;2070;-152;-146;125;468;-128;16036
14:38:16.740;-149;-143;-135;-198;2070;-151;-147;80;468;-128;16036
14:38:16.740;-146;-141;-150;-202;1909;-152;-145;-19;468;-128;16036
14:38:16.740;-147;-140;-131;-203;1609;-153;-144;-146;544;-40;15924
14:38:16.740;-147;-140;-128;-207;1586;-152;-146;-19;544;-40;15924
14:38:16.755;-144;-140;-137;-196;1473;-153;-145;-63;544;-40;15924
14:38:16.755;-145;-143;-150;-178;1367;-153;-145;-77;544;-40;15924
14:38:16.755;-148;-140;-142;-183;1294;-153;-144;-63;544;-40;15924
14:38:16.755;-145;-142;-143;-206;1639;-152;-145;64;544;-40;15924
14:38:16.755;-147;-143;-143;-203;1803;-150;-146;-63;512;-104;16024
14:38:16.755;-145;-138;-140;-201;1772;-151;-146;64;512;-104;16024
14:38:16.755;-145;-141;-145;-184;1755;-151;-142;-326;512;-104;16024
14:38:16.755;-144;-129;-146;-143;1882;-151;-148;-199;512;-104;16024
14:38:16.755;-144;-135;-147;-126;2070;-150;-142;-120;512;-104;16024
14:38:16.755;-149;-141;-138;-175;2070;-150;-144;7;512;-104;16024
14:38:16.755;-144;-138;-118;-223;2070;-150;-145;217;468;-28;16076
14:38:16.755;-144;-133;-139;-219;2070;-148;-146;127;468;-28;16076
14:38:16.755;-145;-132;-151;-225;2070;-150;-142;-99;468;-28;16076
14:38:16.755;-147;-139;-155;-242;2062;-152;-144;28;468;-28;16076
14:38:16.755;-145;-137;-158;-174;2033;-151;-147;-25;468;-28;16076
14:38:16.755;-148;-135;-167;-79;1645;-153;-144;102;468;-28;16076
14:38:16.755;-151;-142;-129;-111;1351;-153;-146;-25;560;-48;16056
14:38:16.771;-147;-142;-123;-127;1463;-151;-147;102;560;-48;16056
14:38:16.771;-147;-137;-132;-140;1075;-152;-145;-25;560;-48;16056
14:38:16.771;-146;-133;-141;-181;987;-152;-147;72;560;-48;16056
14:38:16.771;-146;-140;-152;-215;1113;-151;-146;-34;560;-48;16056
14:38:16.771;-148;-146;-147;-213;986;-152;-148;71;560;-48;16056
14:38:16.771;-149;-141;-144;-209;927;-154;-145;-255;556;-108;16000
14:38:16.771;-150;-142;-141;-195;1054;-152;-146;-161;556;-108;16000
14:38:16.771;-145;-138;-141;-164;1781;-151;-146;-34;556;-108;16000
14:38:16.771;-147;-134;-129;-167;1849;-150;-144;-43;556;-108;16000
14:38:16.771;-144;-132;-133;-188;2070;-147;-148;-104;556;-108;16000
14:38:16.771;-145;-137;-142;-202;2070;-149;-149;-231;556;-108;16000
14:38:16.771;-147;-137;-153;-159;2070;-151;-142;-263;548;-24;15988
14:38:16.771;-147;-135;-140;-174;2070;-151;-148;173;548;-24;15988
14:38:16.771;-149;-145;-136;-200;2070;-151;-141;-322;548;-24;15988
14:38:16.771;-146;-137;-145;-192;2070;-151;-146;-195;548;-24;15988
14:38:16.787;-149;-140;-156;-174;2056;-150;-148;-142;548;-24;15988
14:38:16.787;-148;-140;-147;-170;1584;-153;-146;-128;548;-24;15988
14:38:16.787;-145;-140;-137;-184;1196;-153;-144;-255;600;52;15964
14:38:16.787;-146;-141;-135;-173;1116;-152;-144;-128;600;52;15964
14:38:16.787;-146;-138;-135;-169;1098;-154;-146;-202;600;52;15964
14:38:16.787;-146;-135;-136;-168;972;-153;-144;35;600;52;15964
14:38:16.787;-145;-131;-133;-154;749;-153;-144;-92;600;52;15964
14:38:16.787;-147;-143;-136;-223;876;-152;-146;35;600;52;15964
14:38:16.787;-147;-149;-135;-222;1069;-153;-143;-92;480;16;15944
14:38:16.787;-148;-149;-150;-207;1126;-150;-142;35;480;16;15944
14:38:16.787;-146;-145;-152;-186;1136;-151;-143;-277;480;16;15944
14:38:16.787;-147;-142;-144;-180;1263;-152;-148;-150;480;16;15944
14:38:16.787;-147;-143;-146;-183;1603;-150;-142;-277;480;16;15944
14:38:16.787;-145;-138;-139;-182;1730;-149;-145;-150;480;16;15944
14:38:16.787;-141;-129;-138;-174;2070;-149;-147;-277;552;28;16048
14:38:16.787;-145;-130;-129;-175;2014;-150;-146;-150;552;28;16048
14:38:16.787;-146;-134;-133;-198;1883;-150;-142;-88;552;28;16048
14:38:16.802;-145;-133;-151;-196;1872;-151;-147;39;552;28;16048
14:38:16.802;-146;-141;-142;-200;1879;-151;-142;-304;552;28;16048
14:38:16.802;-144;-141;-139;-157;1808;-150;-143;-177;552;28;16048
14:38:16.802;-143;-136;-117;-178;1606;-153;-144;-304;456;12;15996
14:38:16.802;-144;-139;-118;-185;1479;-154;-146;-177;456;12;15996
14:38:16.802;-145;-138;-157;-197;936;-152;-144;-254;456;12;15996
14:38:16.802;-148;-145;-134;-222;857;-152;-147;-127;456;12;15996
14:38:16.802;-148;-142;-140;-265;945;-153;-145;-310;456;12;15996
14:38:16.802;-144;-141;-153;-232;818;-151;-145;-183;456;12;15996
14:38:16.802;-145;-134;-153;-153;718;-154;-145;-353;556;36;15900
14:38:16.802;-150;-139;-142;-119;845;-152;-147;-226;556;36;15900
14:38:16.802;-150;-146;-145;-149;1277;-151;-143;-227;556;36;15900
14:38:16.802;-145;-135;-152;-167;1404;-151;-143;-100;556;36;15900
14:38:16.802;-147;-140;-141;-140;1531;-150;-144;-227;556;36;15900
14:38:16.802;-145;-130;-151;-127;1579;-152;-148;-124;556;36;15900
14:38:16.818;-145;-133;-147;-140;1995;-152;-142;-197;544;60;15904
14:38:16.818;-147;-148;-137;-200;2070;-151;-146;-70;544;60;15904
14:38:16.818;-152;-146;-149;-213;2070;-150;-145;119;544;60;15904
14:38:16.818;-146;-140;-148;-188;2070;-150;-146;184;544;60;15904
14:38:16.818;-146;-139;-143;-195;2070;-153;-144;-140;544;60;15904
14:38:16.818;-145;-137;-137;-170;2022;-152;-148;-102;544;60;15904
14:38:16.818;-146;-131;-129;-143;2007;-151;-142;-318;532;48;16040
14:38:16.818;-145;-134;-157;-171;1880;-153;-143;-191;532;48;16040
14:38:16.818;-144;-139;-148;-189;1423;-154;-145;-318;532;48;16040
14:38:16.818;-148;-143;-128;-188;1296;-152;-147;-191;532;48;16040
14:38:16.818;-144;-144;-136;-208;929;-153;-140;-318;532;48;16040
14:38:16.818;-146;-142;-147;-203;1056;-153;-145;-191;532;48;16040
14:38:16.818;-146;-143;-141;-209;1171;-153;-145;-189;532;104;15912
14:38:16.818;-145;-143;-137;-213;1088;-153;-146;-166;532;104;15912
14:38:16.834;-143;-135;-137;-199;1056;-154;-144;-327;532;104;15912
14:38:16.834;-144;-141;-137;-226;1183;-153;-147;-200;532;104;15912
14:38:16.834;-149;-147;-136;-268;1658;-153;-142;-121;532;104;15912
14:38:16.834;-146;-145;-137;-236;1785;-149;-147;6;532;104;15912
14:38:16.834;-145;-136;-151;-147;2070;-149;-149;-121;596;84;15948
14:38:16.834;-145;-130;-153;-118;2070;-150;-149;-151;596;84;15948
14:38:16.834;-145;-132;-138;-105;2070;-150;-138;-381;596;84;15948
14:38:16.834;-146;-138;-140;-135;2070;-151;-144;-254;596;84;15948
14:38:16.834;-146;-139;-141;-184;1960;-153;-145;143;596;84;15948
14:38:16.834;-148;-141;-144;-190;2070;-152;-144;97;596;84;15948
14:38:16.834;-146;-139;-141;-184;1960;-153;-145;143;476;60;15928
14:38:16.834;-145;-139;-138;-182;2070;-152;-146;-371;476;60;15928
14:38:16.834;-146;-137;-130;-199;1973;-152;-143;-376;476;60;15928
14:38:16.834;-145;-141;-151;-242;1759;-152;-145;-249;476;60;15928
14:38:16.850;-144;-141;-142;-217;1250;-153;-145;-376;476;60;15928
14:38:16.850;-148;-142;-133;-218;1123;-154;-149;-278;476;60;15928
14:38:16.850;-144;-143;-131;-182;845;-152;-147;-151;440;48;16140
14:38:16.850;-148;-139;-139;-161;972;-151;-145;-274;440;48;16140
14:38:16.850;-148;-138;-139;-141;1379;-152;-146;-366;440;48;16140
14:38:16.850;-147;-134;-146;-177;1395;-152;-144;-239;440;48;16140
14:38:16.850;-149;-137;-136;-189;1333;-152;-143;-333;440;48;16140
14:38:16.850;-146;-137;-145;-153;1592;-152;-149;-206;440;48;16140
14:38:16.850;-149;-135;-153;-149;2051;-151;-142;-206;480;12;16012
14:38:16.850;-146;-138;-164;-203;2070;-150;-146;-79;480;12;16012
14:38:16.850;-148;-140;-143;-219;2070;-147;-145;112;480;12;16012
14:38:16.850;-145;-139;-139;-249;2070;-148;-145;215;480;12;16012
14:38:16.850;-146;-147;-140;-280;2070;-151;-140;-363;480;12;16012
14:38:16.850;-144;-138;-145;-212;2070;-150;-144;-236;480;12;16012
14:38:16.865;-143;-126;-137;-135;2070;-150;-146;32;512;60;15984
14:38:16.865;-150;-137;-134;-107;2070;-149;-142;67;512;60;15984
14:38:16.865;-147;-140;-133;-109;2070;-149;-145;124;512;60;15984
14:38:16.865;-148;-136;-144;-115;2070;-152;-145;-312;512;60;15984
14:38:16.865;-144;-131;-141;-153;1748;-152;-144;-306;512;60;15984
14:38:16.865;-143;-136;-138;-200;1621;-152;-148;-254;512;60;15984
14:38:16.865;-144;-138;-139;-205;1497;-151;-143;-304;528;8;15924
14:38:16.865;-143;-135;-137;-197;1274;-153;-145;-177;528;8;15924
14:38:16.865;-149;-145;-143;-153;1105;-153;-145;-304;528;8;15924
14:38:16.865;-147;-142;-146;-86;1139;-152;-146;-177;528;8;15924
14:38:16.865;-149;-143;-132;-99;1241;-150;-145;199;528;8;15924
14:38:16.865;-146;-144;-140;-156;1368;-149;-145;72;528;8;15924
14:38:16.865;-145;-143;-141;-171;1495;-151;-143;-55;528;8;15924
14:38:16.865;-147;-144;-110;-218;1622;-150;-145;68;528;8;15924
14:38:16.880;-147;-141;-135;-282;2070;-150;-144;46;520;-20;16036
14:38:16.880;-149;-140;-167;-245;2070;-150;-146;-74;520;-20;16036
14:38:16.880;-144;-133;-150;-207;2070;-150;-144;159;520;-20;16036
14:38:16.880;-145;-139;-144;-194;2070;-150;-145;32;520;-20;16036
14:38:16.880;-145;-138;-142;-185;2070;-149;-144;-165;520;-20;16036
14:38:16.880;-146;-139;-140;-173;2070;-149;-144;-38;520;-20;16036
14:38:16.880;-145;-136;-141;-179;2056;-151;-143;-436;548;-16;16116
14:38:16.880;-144;-139;-130;-190;1929;-153;-148;-309;548;-16;16116
14:38:16.880;-146;-141;-140;-196;1776;-152;-144;-333;548;-16;16116
14:38:16.880;-145;-141;-139;-201;1649;-151;-145;-206;548;-16;16116
14:38:16.880;-149;-143;-138;-197;1148;-152;-147;-79;548;-16;16116
14:38:16.880;-145;-141;-146;-189;1275;-150;-145;-206;548;-16;16116
14:38:16.880;-147;-136;-137;-173;1289;-152;-144;-209;580;16;15632
14:38:16.880;-148;-141;-136;-188;1465;-151;-144;-82;580;16;15632
14:38:16.897;-146;-141;-142;-199;1522;-152;-146;-376;580;16;15632
14:38:16.897;-145;-139;-118;-194;1592;-151;-146;-249;580;16;15632
14:38:16.897;-145;-134;-123;-194;1647;-149;-144;98;580;16;15632
14:38:16.897;-144;-134;-132;-185;1774;-148;-146;190;580;16;15632
14:38:16.897;-142;-133;-163;-170;2070;-147;-142;63;536;-20;16012
14:38:16.897;-148;-143;-169;-184;2070;-149;-143;147;536;-20;16012
14:38:16.897;-146;-141;-141;-175;2070;-147;-144;97;536;-20;16012
14:38:16.897;-146;-136;-139;-185;2070;-149;-148;-104;536;-20;16012
14:38:16.897;-146;-140;-153;-173;2070;-151;-140;-357;536;-20;16012
14:38:16.897;-146;-130;-149;-195;2070;-150;-145;-230;536;-20;16012
14:38:16.897;-146;-139;-160;-172;2070;-149;-145;84;536;68;15908
14:38:16.897;-146;-136;-141;-151;2070;-150;-144;-43;536;68;15908
14:38:16.897;-144;-137;-127;-162;2044;-151;-146;-207;536;68;15908
14:38:16.897;-144;-142;-129;-177;1917;-155;-147;-80;536;68;15908
14:38:16.912;-146;-145;-129;-191;1256;-152;-144;-207;536;68;15908
14:38:16.912;-145;-138;-146;-193;1267;-153;-146;-80;536;68;15908
14:38:16.912;-148;-138;-150;-205;1366;-152;-142;-338;436;-32;15936
14:38:16.912;-146;-139;-149;-191;1395;-151;-146;-211;436;-32;15936
14:38:16.912;-145;-139;-144;-197;1406;-152;-149;-226;436;-32;15936
14:38:16.912;-144;-134;-137;-182;1222;-151;-146;-99;436;-32;15936
14:38:16.912;-144;-136;-138;-165;1445;-152;-144;-150;436;-32;15936
14:38:16.912;-145;-139;-134;-164;1572;-151;-145;-23;436;-32;15936
14:38:16.912;-148;-145;-149;-175;2070;-150;-145;104;572;-36;16028
14:38:16.912;-151;-145;-149;-188;2070;-148;-140;156;572;-36;16028
14:38:16.912;-146;-139;-139;-184;2070;-151;-145;198;572;-36;16028
14:38:16.912;-143;-134;-136;-166;2070;-146;-144;-152;572;-36;16028
14:38:16.912;-142;-132;-134;-224;2070;-146;-140;-117;572;-36;16028
14:38:16.912;-146;-141;-144;-243;2070;-149;-142;10;572;-36;16028
14:38:16.927;-147;-139;-156;-231;2070;-147;-143;-344;584;100;16120
14:38:16.927;-144;-132;-150;-200;2070;-149;-148;-329;584;100;16120
14:38:16.927;-145;-134;-145;-200;2070;-152;-144;-443;584;100;16120
14:38:16.927;-147;-146;-137;-215;2070;-152;-146;-45;584;100;16120
14:38:16.927;-146;-135;-148;-157;2070;-152;-144;-184;584;100;16120
14:38:16.927;-143;-128;-147;-172;1943;-153;-145;-57;584;100;16120
14:38:16.927;-146;-136;-135;-134;1582;-153;-145;-184;568;-20;15940
14:38:16.927;-148;-143;-136;-65;1455;-152;-148;-279;568;-20;15940
14:38:16.927;-151;-143;-136;-109;1516;-153;-145;-367;568;-20;15940
14:38:16.927;-153;-145;-136;-144;1461;-152;-148;54;568;-20;15940
14:38:16.927;-148;-140;-141;-192;1547;-151;-146;167;568;-20;15940
14:38:16.927;-147;-140;-142;-198;1588;-151;-144;-15;568;-20;15940
14:38:16.927;-146;-135;-142;-182;2014;-150;-149;89;532;-40;16028
14:38:16.927;-145;-134;-140;-193;1959;-150;-149;72;532;-40;16028
14:38:16.943;-146;-135;-138;-175;2070;-151;-143;-86;532;-40;16028
14:38:16.943;-148;-135;-141;-180;2070;-149;-143;41;532;-40;16028
14:38:16.943;-147;-139;-143;-206;2070;-150;-144;-214;532;-40;16028
14:38:16.943;-146;-138;-143;-212;2070;-147;-145;-87;532;-40;16028
14:38:16.943;-147;-136;-149;-200;2070;-150;-142;-163;460;0;15928
14:38:16.943;-146;-139;-136;-195;2070;-149;-147;67;460;0;15928
14:38:16.943;-145;-133;-137;-162;2070;-151;-145;90;460;0;15928
14:38:16.943;-143;-141;-139;-168;2070;-150;-146;-58;460;0;15928
14:38:16.943;-146;-140;-145;-159;2066;-152;-145;-190;460;0;15928
14:38:16.943;-146;-141;-148;-193;1939;-152;-146;-202;460;0;15928
14:38:16.943;-146;-142;-137;-217;1523;-151;-147;-75;504;-20;15968
14:38:16.943;-146;-145;-131;-228;1408;-152;-145;-202;504;-20;15968
14:38:16.943;-146;-142;-133;-211;1578;-152;-147;-247;504;-20;15968
14:38:16.943;-143;-135;-132;-171;1451;-151;-146;-203;504;-20;15968
14:38:16.943;-145;-139;-134;-177;1202;-152;-144;-104;504;-20;15968
14:38:16.943;-147;-144;-137;-186;1235;-153;-146;23;504;-20;15968
14:38:16.943;-146;-149;-136;-170;1570;-152;-144;-104;520;-72;16104
14:38:16.943;-149;-141;-125;-113;1697;-151;-145;23;520;-72;16104
14:38:16.959;-146;-134;-152;-150;2070;-148;-150;-104;520;-72;16104
14:38:16.959;-145;-138;-151;-188;2070;-150;-148;-130;520;-72;16104
14:38:16.959;-147;-138;-135;-209;2070;-149;-142;-210;520;-72;16104
14:38:16.959;-145;-138;-147;-216;2070;-150;-143;79;520;-72;16104
14:38:16.959;-147;-134;-150;-200;2070;-151;-145;159;492;48;16040
14:38:16.959;-145;-138;-149;-181;2070;-151;-144;184;492;48;16040
14:38:16.959;-148;-138;-137;-192;2070;-153;-144;39;492;48;16040
14:38:16.959;-143;-136;-130;-193;2070;-151;-147;166;492;48;16040
14:38:16.959;-145;-140;-123;-190;2070;-153;-144;-155;492;48;16040
14:38:16.959;-145;-134;-134;-176;2070;-151;-144;-28;492;48;16040
14:38:16.959;-146;-145;-145;-167;1819;-150;-145;-153;492;-92;16048
14:38:16.959;-143;-141;-149;-165;1692;-153;-146;-197;492;-92;16048
14:38:16.959;-146;-138;-156;-161;1456;-154;-145;-324;492;-92;16048
14:38:16.959;-147;-136;-136;-167;1583;-151;-146;-197;492;-92;16048
14:38:16.974;-148;-139;-140;-172;1705;-152;-147;-189;492;-92;16048
14:38:16.974;-144;-129;-142;-215;1443;-152;-147;-69;492;-92;16048
14:38:16.974;-148;-138;-158;-245;1494;-152;-144;-355;568;-24;15956
14:38:16.974;-146;-143;-145;-225;1621;-151;-146;-228;568;-24;15956
14:38:16.974;-147;-144;-147;-179;2070;-151;-146;-101;568;-24;15956
14:38:16.974;-149;-142;-155;-160;2070;-152;-144;26;568;-24;15956
14:38:16.974;-150;-142;-142;-185;2070;-151;-144;-185;568;-24;15956
14:38:16.974;-143;-136;-138;-178;2070;-150;-145;-58;568;-24;15956
14:38:16.974;-142;-131;-139;-173;2070;-148;-142;-14;512;4;15996
14:38:16.974;-143;-130;-144;-179;2070;-150;-144;82;512;4;15996
14:38:16.974;-145;-136;-134;-188;2070;-150;-144;130;512;4;15996
14:38:16.974;-144;-137;-134;-182;2070;-152;-147;-44;512;4;15996
14:38:16.974;-143;-139;-137;-202;2070;-150;-146;-143;512;4;15996
14:38:16.974;-148;-144;-145;-220;2070;-151;-146;122;512;4;15996
14:38:16.974;-143;-136;-138;-194;2025;-151;-146;-162;556;-52;15808
14:38:16.974;-143;-134;-132;-177;1898;-153;-145;-35;556;-52;15808
14:38:16.990;-143;-132;-139;-165;1353;-152;-146;-162;556;-52;15808
14:38:16.990;-148;-141;-145;-124;1360;-152;-146;-81;556;-52;15808
14:38:16.990;-153;-148;-145;-124;1405;-153;-145;-189;556;-52;15808
14:38:16.990;-147;-145;-142;-155;1461;-153;-147;113;556;-52;15808
14:38:16.990;-148;-145;-135;-151;1748;-153;-145;-14;528;-28;15936
14:38:16.990;-144;-139;-133;-172;1875;-151;-146;113;528;-28;15936
14:38:16.990;-146;-138;-152;-190;2070;-152;-148;156;528;-28;15936
14:38:16.990;-146;-137;-151;-184;2070;-151;-148;128;528;-28;15936
14:38:16.990;-143;-135;-140;-203;2070;-150;-142;-237;528;-28;15936
14:38:16.990;-147;-139;-148;-187;2070;-150;-143;-110;528;-28;15936
14:38:16.990;-149;-139;-144;-133;2070;-152;-144;-323;512;-16;16032
14:38:16.990;-146;-140;-149;-170;2070;-150;-146;-196;512;-16;16032
14:38:16.990;-144;-138;-143;-215;2070;-150;-145;172;512;-16;16032
14:38:16.990;-144;-139;-141;-282;2070;-150;-145;45;512;-16;16032
14:38:16.990;-145;-136;-143;-300;2070;-151;-145;-199;512;-16;16032
14:38:16.990;-143;-133;-139;-203;2070;-150;-147;-132;512;-16;16032
14:38:17.006;-146;-139;-133;-136;2070;-154;-145;-400;464;-68;16044
14:38:17.006;-150;-142;-132;-106;2051;-154;-147;-273;464;-68;16044
14:38:17.006;-146;-145;-140;-156;2035;-152;-147;85;464;-68;16044
14:38:17.006;-145;-139;-136;-180;1908;-153;-146;-42;464;-68;16044
14:38:17.006;-145;-137;-138;-226;1808;-152;-147;-238;464;-68;16044
14:38:17.006;-144;-142;-135;-247;1681;-153;-147;-111;464;-68;16044
14:38:17.006;-146;-137;-138;-204;1600;-152;-146;7;528;-96;15932
14:38:17.006;-146;-133;-139;-81;1380;-154;-149;134;528;-96;15932
14:38:17.006;-150;-134;-129;-115;1600;-152;-144;7;528;-96;15932
14:38:17.006;-149;-141;-145;-164;1727;-152;-146;134;528;-96;15932
14:38:17.006;-150;-145;-142;-199;2041;-149;-146;204;528;-96;15932
14:38:17.006;-147;-140;-139;-231;2070;-149;-146;178;528;-96;15932
14:38:17.006;-146;-137;-139;-229;2070;-151;-142;-308;528;-96;16052
14:38:17.006;-146;-134;-143;-217;2070;-149;-146;-181;528;-96;16052
14:38:17.022;-144;-132;-146;-153;2070;-150;-146;220;528;-96;16052
14:38:17.022;-152;-144;-135;-155;2070;-150;-145;211;528;-96;16052
14:38:17.022;-146;-133;-143;-152;2070;-151;-147;232;528;-96;16052
14:38:17.022;-144;-140;-143;-160;2070;-149;-146;-168;528;-96;16052
14:38:17.022;-147;-144;-147;-178;2069;-153;-144;-295;604;-20;15936
14:38:17.022;-147;-140;-148;-203;1942;-154;-148;-168;604;-20;15936
14:38:17.022;-148;-143;-146;-191;1713;-151;-146;-191;604;-20;15936
14:38:17.022;-146;-142;-146;-157;1586;-154;-146;-64;604;-20;15936
14:38:17.022;-149;-144;-136;-193;1096;-154;-146;-27;604;-20;15936
14:38:17.022;-145;-137;-133;-196;969;-153;-147;-154;604;-20;15936
14:38:17.022;-145;-132;-121;-179;758;-152;-146;-27;480;-32;15968
14:38:17.022;-147;-139;-127;-185;885;-153;-144;-154;480;-32;15968
14:38:17.022;-148;-136;-113;-189;1054;-151;-147;-226;480;-32;15968
14:38:17.022;-145;-139;-151;-199;1079;-151;-145;-115;480;-32;15968
14:38:17.037;-149;-141;-166;-205;1481;-154;-144;-242;480;-32;15968
14:38:17.037;-147;-140;-160;-181;1608;-152;-147;-115;480;-32;15968
14:38:17.037;-147;-140;-141;-178;2004;-149;-146;12;556;-80;15948
14:38:17.037;-145;-135;-124;-169;2070;-151;-143;-115;556;-80;15948
14:38:17.037;-143;-135;-138;-178;2070;-149;-146;-97;556;-80;15948
14:38:17.037;-146;-138;-153;-200;2070;-146;-148;-214;556;-80;15948
14:38:17.037;-144;-136;-142;-222;2070;-148;-142;-412;556;-80;15948
14:38:17.037;-144;-136;-142;-221;2070;-150;-147;-285;556;-80;15948
14:38:17.037;-145;-141;-152;-184;2070;-151;-147;179;516;16;15936
14:38:17.037;-146;-145;-147;-159;2070;-149;-145;204;516;16;15936
14:38:17.037;-151;-144;-154;-176;1765;-150;-147;164;516;16;15936
14:38:17.037;-146;-143;-150;-180;1892;-155;-146;37;516;16;15936
14:38:17.037;-145;-145;-142;-187;1380;-155;-143;-90;516;16;15936
14:38:17.037;-144;-136;-139;-121;1397;-151;-143;37;516;16;15936
14:38:17.053;-147;-140;-126;-136;1086;-155;-146;-90;524;-88;15944
14:38:17.053;-149;-144;-138;-186;1005;-153;-147;-30;524;-88;15944
14:38:17.053;-148;-139;-134;-224;1196;-152;-145;-63;524;-88;15944
14:38:17.053;-144;-139;-126;-234;1323;-150;-147;64;524;-88;15944
14:38:17.053;-144;-135;-127;-226;1442;-150;-143;-179;524;-88;15944
14:38:17.053;-145;-137;-147;-184;1539;-150;-144;-52;524;-88;15944
14:38:17.053;-144;-130;-131;-148;1636;-150;-144;-200;504;-56;15904
14:38:17.053;-144;-132;-134;-140;1763;-151;-147;-73;504;-56;15904
14:38:17.053;-149;-142;-147;-170;2070;-151;-142;-200;504;-56;15904
14:38:17.053;-152;-140;-152;-169;2070;-151;-147;-73;504;-56;15904
14:38:17.053;-147;-138;-162;-147;2070;-147;-146;226;504;-56;15904
14:38:17.053;-146;-139;-156;-142;1987;-148;-144;99;504;-56;15904
14:38:17.053;-147;-138;-153;-132;2070;-151;-149;83;548;60;16056
14:38:17.053;-147;-139;-152;-164;1709;-152;-148;117;548;60;16056
14:38:17.068;-146;-141;-147;-222;1734;-151;-143;-303;548;60;16056
14:38:17.068;-148;-140;-141;-221;1665;-153;-144;-176;548;60;16056
14:38:17.068;-148;-143;-138;-213;1524;-154;-145;-303;548;60;16056
14:38:17.068;-146;-141;-135;-240;1491;-151;-147;-176;548;60;16056
14:38:17.068;-145;-143;-135;-227;1093;-153;-144;-303;528;-28;15932
14:38:17.068;-146;-141;-137;-213;966;-154;-148;-176;528;-28;15932
14:38:17.068;-145;-141;-139;-193;957;-152;-144;-148;528;-28;15932
14:38:17.068;-145;-138;-141;-169;1110;-152;-144;-21;528;-28;15932
14:38:17.068;-146;-140;-146;-174;998;-153;-144;-338;528;-28;15932
14:38:17.068;-151;-140;-141;-164;1125;-151;-146;-211;528;-28;15932
14:38:17.068;-146;-136;-145;-170;1429;-152;-146;-84;520;-36;15952
14:38:17.068;-145;-142;-134;-160;1556;-150;-145;43;520;-36;15952
14:38:17.068;-146;-141;-132;-148;1980;-149;-144;-33;520;-36;15952
14:38:17.068;-145;-138;-131;-161;2070;-150;-146;71;520;-36;15952
14:38:17.084;-145;-132;-141;-205;2070;-148;-144;45;520;-36;15952
14:38:17.084;-146;-137;-150;-247;2070;-150;-148;76;520;-36;15952
14:38:17.084;-149;-141;-156;-256;2070;-152;-143;-101;440;-60;15908
14:38:17.084;-145;-137;-148;-207;2070;-151;-147;26;440;-60;15908
14:38:17.084;-146;-131;-146;-135;2070;-148;-149;-255;440;-60;15908
14:38:17.084;-143;-134;-135;-192;1943;-152;-148;-166;440;-60;15908
14:38:17.084;-145;-145;-126;-241;1555;-153;-145;-227;440;-60;15908
14:38:17.084;-145;-139;-136;-220;1428;-154;-148;-100;440;-60;15908
14:38:17.084;-145;-140;-137;-179;1209;-153;-145;-227;512;4;15964
14:38:17.084;-149;-146;-146;-90;1134;-153;-145;-100;512;4;15964
14:38:17.084;-146;-141;-138;-50;1121;-153;-145;-310;512;4;15964
14:38:17.084;-146;-137;-139;-138;1248;-152;-146;-183;512;4;15964
14:38:17.084;-146;-139;-139;-191;1209;-153;-145;-101;512;4;15964
14:38:17.084;-148;-140;-143;-218;1281;-151;-147;261;512;4;15964
14:38:17.100;-150;-142;-145;-215;1738;-150;-146;222;560;-60;15976
14:38:17.100;-147;-137;-143;-207;1865;-150;-144;246;560;-60;15976
14:38:17.100;-144;-140;-139;-190;2025;-150;-145;119;560;-60;15976
14:38:17.100;-145;-136;-135;-193;2070;-149;-145;234;560;-60;15976
14:38:17.100;-146;-137;-142;-212;2070;-148;-142;-147;560;-60;15976
14:38:17.100;-145;-135;-133;-231;2070;-147;-144;-20;560;-60;15976
14:38:17.100;-145;-126;-121;-174;2070;-151;-143;-100;572;-4;16012
14:38:17.100;-143;-130;-141;-168;2070;-150;-144;231;572;-4;16012
14:38:17.100;-147;-143;-159;-132;2070;-153;-144;-1;572;-4;16012
14:38:17.100;-147;-142;-148;-142;1943;-152;-148;-128;572;-4;16012
14:38:17.100;-150;-146;-130;-162;1524;-153;-142;-255;572;-4;16012
14:38:17.100;-150;-142;-134;-167;1591;-151;-146;-128;572;-4;16012
14:38:17.100;-146;-141;-158;-201;1324;-150;-146;-255;572;-4;16012
14:38:17.100;-143;-141;-144;-202;1197;-153;-146;-220;572;-4;16012
14:38:17.115;-146;-145;-145;-190;1017;-153;-144;-325;504;32;15956
14:38:17.115;-147;-139;-152;-191;1042;-153;-148;-198;504;32;15956
14:38:17.115;-147;-143;-147;-216;1202;-154;-143;-98;504;32;15956
14:38:17.115;-147;-136;-128;-218;1329;-152;-145;29;504;32;15956
14:38:17.115;-142;-132;-123;-179;1336;-152;-147;-50;504;32;15956
14:38:17.115;-142;-133;-126;-151;1181;-150;-147;48;504;32;15956
14:38:17.115;-146;-136;-127;-175;1467;-151;-143;-47;528;-32;16192
14:38:17.115;-146;-138;-158;-196;1594;-150;-144;80;528;-32;16192
14:38:17.115;-147;-139;-141;-185;2070;-151;-145;207;528;-32;16192
14:38:17.115;-146;-140;-148;-178;2070;-150;-142;193;528;-32;16192
14:38:17.115;-151;-147;-158;-134;2070;-150;-142;-171;528;-32;16192
14:38:17.115;-148;-141;-151;-132;2070;-149;-146;-44;528;-32;16192
14:38:17.115;-145;-142;-137;-183;2070;-151;-142;-81;480;44;16016
14:38:17.115;-142;-134;-132;-209;2070;-151;-143;224;480;44;16016
14:38:17.130;-144;-136;-156;-207;2056;-154;-142;97;480;44;16016
14:38:17.130;-148;-143;-150;-219;1929;-154;-149;-30;480;44;16016
14:38:17.130;-143;-137;-146;-201;1765;-153;-146;-157;480;44;16016
14:38:17.130;-146;-134;-145;-165;1892;-151;-146;-30;480;44;16016
14:38:17.130;-143;-137;-139;-153;1683;-151;-149;-157;568;12;16024
14:38:17.130;-145;-139;-138;-134;1556;-153;-149;-241;568;12;16024
14:38:17.130;-146;-137;-134;-154;1296;-153;-144;-338;568;12;16024
14:38:17.130;-146;-138;-129;-161;1423;-151;-146;-211;568;12;16024
14:38:17.130;-148;-137;-132;-182;1752;-152;-146;-84;568;12;16024
14:38:17.130;-148;-143;-132;-220;1879;-150;-144;43;568;12;16024
14:38:17.130;-150;-142;-126;-221;2070;-153;-144;-84;544;-40;15916
14:38:17.130;-147;-138;-134;-220;2070;-149;-146;43;544;-40;15916
14:38:17.130;-147;-138;-152;-213;2070;-148;-142;-110;544;-40;15916
14:38:17.130;-147;-135;-154;-206;2070;-148;-143;17;544;-40;15916
14:38:17.146;-146;-137;-151;-188;2070;-150;-143;-329;544;-40;15916
14:38:17.146;-145;-138;-146;-191;2070;-150;-146;-202;544;-40;15916
14:38:17.146;-145;-133;-147;-174;2070;-152;-142;-270;456;24;15960
14:38:17.146;-147;-141;-149;-178;2070;-148;-145;242;456;24;15960
14:38:17.146;-145;-133;-146;-156;2070;-151;-148;-82;456;24;15960
14:38:17.146;-145;-138;-149;-188;2070;-152;-146;45;456;24;15960
14:38:17.146;-146;-142;-141;-189;2070;-152;-145;-80;456;24;15960
14:38:17.146;-145;-138;-144;-156;2070;-152;-147;120;456;24;15960
14:38:17.146;-145;-137;-143;-150;1985;-154;-144;-443;540;-28;15960
14:38:17.146;-148;-138;-132;-165;1897;-154;-144;-316;540;-28;15960
14:38:17.146;-147;-142;-140;-209;2070;-153;-146;-189;540;-28;15960
14:38:17.146;-144;-144;-137;-241;2070;-151;-146;-62;540;-28;15960
14:38:17.146;-146;-142;-143;-185;1873;-152;-144;-189;540;-28;15960
14:38:17.146;-147;-143;-136;-178;1910;-151;-146;-62;540;-28;15960
14:38:17.146;-146;-142;-127;-179;2070;-152;-145;65;512;-52;15980
14:38:17.146;-145;-138;-129;-202;2070;-152;-145;-62;512;-52;15980
14:38:17.146;-149;-134;-145;-186;2070;-152;-142;-247;512;-52;15980
14:38:17.146;-144;-132;-146;-155;2070;-151;-148;-120;512;-52;15980
14:38:17.162;-144;-135;-138;-173;2070;-148;-145;229;512;-52;15980
14:38:17.162;-147;-141;-142;-181;2070;-148;-143;102;512;-52;15980
14:38:17.162;-145;-135;-141;-198;2070;-147;-150;-175;512;4;16056
14:38:17.162;-150;-145;-142;-219;2070;-150;-147;-48;512;4;16056
14:38:17.162;-147;-143;-150;-221;2070;-150;-142;-297;512;4;16056
14:38:17.162;-150;-144;-144;-192;2070;-152;-143;-170;512;4;16056
14:38:17.162;-145;-137;-132;-141;2070;-151;-147;213;512;4;16056
14:38:17.162;-142;-135;-142;-114;2070;-152;-145;86;512;4;16056
14:38:17.162;-146;-138;-154;-158;2070;-153;-144;-344;520;-24;15920
14:38:17.162;-145;-137;-135;-150;2007;-152;-147;-217;520;-24;15920
14:38:17.162;-147;-144;-139;-153;2070;-151;-145;-329;520;-24;15920
14:38:17.162;-147;-140;-142;-183;1944;-153;-147;-202;520;-24;15920
14:38:17.162;-149;-138;-130;-200;1982;-153;-146;81;520;-24;15920
14:38:17.162;-145;-138;-136;-208;1861;-153;-149;-46;520;-24;15920
14:38:17.162;-150;-139;-144;-201;2070;-150;-146;81;504;-40;16068
14:38:17.162;-143;-132;-139;-209;2070;-150;-145;-38;504;-40;16068
14:38:17.162;-143;-132;-138;-186;2070;-151;-149;-150;504;-40;16068
14:38:17.162;-146;-139;-141;-203;2070;-150;-148;-32;504;-40;16068
14:38:17.177;-148;-144;-140;-176;2070;-150;-143;-160;504;-40;16068
14:38:17.177;-147;-138;-148;-149;2070;-151;-146;-33;504;-40;16068
14:38:17.177;-149;-140;-143;-179;2070;-148;-145;227;568;80;16028
14:38:17.177;-146;-137;-147;-140;2070;-147;-146;264;568;80;16028
14:38:17.177;-145;-137;-153;-176;2070;-152;-144;111;568;80;16028
14:38:17.177;-144;-134;-141;-197;2070;-152;-148;-16;568;80;16028
14:38:17.177;-143;-138;-125;-207;2070;-150;-142;-167;568;80;16028
14:38:17.177;-142;-137;-136;-185;2070;-154;-144;-40;568;80;16028
14:38:17.177;-147;-140;-149;-214;2070;-154;-145;-380;568;20;15948
14:38:17.177;-148;-149;-120;-240;1943;-153;-147;-253;568;20;15948
14:38:17.177;-148;-149;-125;-232;1660;-152;-146;-126;568;20;15948
14:38:17.177;-147;-145;-140;-234;1787;-153;-145;-253;568;20;15948
14:38:17.177;-146;-142;-152;-225;1656;-151;-145;-292;568;20;15948
14:38:17.177;-146;-142;-166;-171;1529;-152;-146;-172;568;20;15948
14:38:17.193;-146;-133;-147;-123;1510;-154;-144;-345;552;88;16016
14:38:17.193;-145;-134;-145;-142;1383;-152;-148;-218;552;88;16016
14:38:17.193;-146;-141;-150;-134;1525;-152;-145;-91;552;88;16016
14:38:17.193;-146;-139;-150;-133;1652;-149;-145;36;552;88;16016
14:38:17.193;-146;-142;-141;-148;2070;-149;-147;-91;552;88;16016
14:38:17.193;-149;-143;-150;-163;2070;-147;-146;4;552;88;16016
14:38:17.193;-146;-138;-149;-175;2070;-152;-141;-336;580;8;15920
14:38:17.193;-146;-138;-145;-184;2070;-150;-148;-209;580;8;15920
14:38:17.193;-146;-131;-148;-182;2070;-151;-142;-152;580;8;15920
14:38:17.193;-146;-130;-143;-202;2070;-151;-142;271;580;8;15920
14:38:17.193;-147;-139;-147;-187;2070;-150;-145;195;580;8;15920
14:38:17.193;-146;-136;-137;-166;2070;-151;-145;-290;580;8;15920
14:38:17.193;-145;-139;-136;-167;1771;-152;-143;-177;540;16;15996
14:38:17.193;-144;-135;-131;-174;1648;-153;-145;-50;540;16;15996
14:38:17.208;-145;-143;-130;-215;1679;-151;-146;-57;540;16;15996
14:38:17.208;-148;-146;-147;-194;1531;-154;-145;70;540;16;15996
14:38:17.208;-150;-142;-141;-217;1181;-154;-144;-57;540;16;15996
14:38:17.208;-147;-148;-146;-231;1289;-151;-147;70;540;16;15996
14:38:17.208;-145;-137;-144;-182;1114;-152;-143;-57;532;-4;16028
14:38:17.208;-145;-137;-139;-152;1213;-152;-145;70;532;-4;16028
14:38:17.208;-149;-141;-137;-156;1724;-150;-146;115;532;-4;16028
14:38:17.208;-147;-140;-145;-188;1597;-150;-147;76;532;-4;16028
14:38:17.208;-146;-137;-141;-204;1823;-153;-145;168;532;-4;16028
14:38:17.208;-149;-143;-137;-195;1858;-150;-149;41;532;-4;16028
14:38:17.208;-147;-138;-139;-201;2070;-150;-146;168;532;-4;15984
14:38:17.208;-146;-136;-133;-189;2070;-148;-143;41;532;-4;15984
14:38:17.208;-145;-132;-130;-208;2070;-148;-146;-27;532;-4;15984
14:38:17.208;-141;-130;-125;-182;2070;-147;-148;-57;532;-4;15984
14:38:17.224;-146;-136;-137;-155;2070;-150;-144;-71;532;-4;15984
14:38:17.224;-147;-139;-149;-192;2070;-153;-147;245;532;-4;15984
14:38:17.224;-152;-140;-148;-188;2070;-152;-144;-155;552;-56;16000
14:38:17.224;-146;-136;-147;-161;2070;-154;-146;-28;552;-56;16000
14:38:17.224;-147;-143;-152;-178;1919;-152;-147;-124;552;-56;16000
14:38:17.224;-146;-143;-130;-157;1792;-151;-146;-117;552;-56;16000
14:38:17.224;-143;-145;-149;-151;1097;-152;-144;-95;552;-56;16000
14:38:17.224;-148;-148;-154;-193;1224;-151;-144;32;552;-56;16000
14:38:17.224;-146;-144;-141;-212;1399;-153;-145;41;516;-36;15988
14:38:17.224;-148;-142;-137;-204;1282;-153;-145;101;516;-36;15988
14:38:17.224;-146;-135;-139;-228;1178;-152;-146;231;516;-36;15988
14:38:17.224;-141;-134;-130;-239;1305;-150;-144;104;516;-36;15988
14:38:17.224;-140;-128;-140;-195;1827;-151;-143;-23;516;-36;15988
14:38:17.224;-141;-128;-127;-200;1954;-149;-142;104;516;-36;15988
14:38:17.240;-143;-129;-125;-164;2070;-153;-142;-143;528;20;15996
14:38:17.240;-148;-144;-126;-120;2070;-152;-146;-16;528;20;15996
14:38:17.240;-151;-149;-162;-119;2070;-152;-142;-216;528;20;15996
14:38:17.240;-148;-139;-147;-155;2070;-148;-145;-89;528;20;15996
14:38:17.240;-145;-131;-137;-159;2070;-150;-141;-125;528;20;15996
14:38:17.240;-143;-135;-124;-184;2070;-151;-143;271;528;20;15996
14:38:17.240;-145;-140;-127;-210;2070;-153;-144;-317;560;-36;16008
14:38:17.240;-149;-143;-167;-169;2070;-153;-146;-190;560;-36;16008
14:38:17.240;-148;-146;-154;-165;1927;-153;-144;-317;560;-36;16008
14:38:17.240;-145;-146;-153;-185;1800;-153;-148;-190;560;-36;16008
14:38:17.240;-143;-149;-150;-179;1356;-153;-146;-63;560;-36;16008
14:38:17.240;-146;-143;-142;-170;1229;-154;-146;-110;560;-36;16008
14:38:17.240;-143;-123;-138;-168;1185;-153;-148;28;496;-52;15940
14:38:17.240;-140;-127;-134;-186;1058;-152;-147;155;496;-52;15940
14:38:17.256;-144;-133;-146;-197;1141;-152;-144;-204;496;-52;15940
14:38:17.256;-148;-147;-154;-176;1252;-152;-143;-77;496;-52;15940
14:38:17.256;-149;-146;-143;-208;1380;-151;-145;-204;496;-52;15940
14:38:17.256;-149;-141;-143;-214;1507;-151;-146;-77;496;-52;15940
14:38:17.256;-145;-130;-154;-202;1919;-148;-143;-60;444;12;15904
14:38:17.256;-144;-124;-160;-194;2046;-149;-145;67;444;12;15904
14:38:17.256;-144;-128;-144;-158;2070;-147;-145;227;444;12;15904
14:38:17.256;-146;-142;-141;-167;2070;-148;-146;100;444;12;15904
14:38:17.256;-150;-144;-138;-165;2070;-150;-144;-11;444;12;15904
14:38:17.256;-146;-140;-135;-163;2070;-152;-146;136;444;12;15904
14:38:17.256;-150;-139;-141;-153;2070;-150;-142;-55;476;28;15956
14:38:17.256;-146;-137;-138;-146;2070;-150;-147;72;476;28;15956
14:38:17.256;-147;-138;-146;-187;2070;-152;-148;-55;476;28;15956
14:38:17.256;-143;-140;-133;-199;1943;-153;-146;-182;476;28;15956
14:38:17.271;-145;-140;-130;-199;1559;-151;-145;-275;476;28;15956
14:38:17.271;-145;-141;-140;-197;1432;-153;-147;-148;476;28;15956
14:38:17.271;-147;-140;-148;-201;1660;-151;-146;-70;508;-20;15916
14:38:17.271;-150;-145;-134;-195;1533;-153;-146;57;508;-20;15916
14:38:17.271;-147;-143;-134;-192;1115;-153;-144;-70;508;-20;15916
14:38:17.271;-145;-138;-145;-172;1242;-152;-148;57;508;-20;15916
14:38:17.271;-144;-137;-146;-177;1574;-152;-143;-67;508;-20;15916
14:38:17.271;-145;-137;-145;-176;1701;-151;-145;60;508;-20;15916
14:38:17.271;-145;-139;-135;-183;1905;-154;-144;-67;608;-84;15984
14:38:17.271;-146;-139;-131;-172;2032;-151;-145;13;608;-84;15984
14:38:17.271;-148;-139;-134;-199;2070;-152;-143;-331;608;-84;15984
14:38:17.271;-145;-139;-146;-218;2070;-148;-145;-204;608;-84;15984
14:38:17.287;-146;-139;-148;-212;2070;-148;-145;-95;608;-84;15984
14:38:17.287;-147;-138;-147;-174;2070;-149;-145;148;608;-84;15984
14:38:17.287;-145;-136;-144;-159;2070;-152;-142;-334;552;4;15876
14:38:17.287;-145;-131;-146;-160;2070;-152;-147;-207;552;4;15876
14:38:17.287;-146;-141;-143;-193;2070;-149;-145;-153;552;4;15876
14:38:17.287;-150;-143;-140;-219;2070;-151;-146;175;552;4;15876
14:38:17.287;-146;-141;-142;-228;2070;-154;-149;-323;552;4;15876
14:38:17.287;-145;-140;-140;-202;2027;-152;-148;-287;552;4;15876
14:38:17.287;-143;-134;-142;-128;1761;-153;-144;-414;464;-20;16016
14:38:17.287;-145;-139;-132;-144;1750;-151;-146;-287;464;-20;16016
14:38:17.287;-145;-141;-126;-177;1785;-152;-146;-65;464;-20;16016
14:38:17.287;-145;-143;-137;-182;1658;-153;-145;62;464;-20;16016
14:38:17.287;-150;-140;-139;-187;1773;-153;-146;-160;464;-20;16016
14:38:17.287;-144;-136;-136;-196;1900;-150;-146;-33;464;-20;16016
14:38:17.287;-145;-137;-136;-197;2070;-150;-145;-85;528;0;16024
14:38:17.287;-145;-135;-134;-205;2070;-149;-146;42;528;0;16024
14:38:17.303;-145;-135;-135;-222;2046;-152;-143;-346;528;0;16024
14:38:17.303;-146;-137;-137;-202;2070;-151;-146;-219;528;0;16024
14:38:17.303;-150;-136;-157;-208;2070;-150;-143;-304;528;0;16024
14:38:17.303;-148;-139;-154;-151;2070;-150;-148;153;528;0;16024
14:38:17.303;-145;-139;-129;-156;2070;-147;-146;179;504;-16;16076
14:38:17.303;-146;-140;-142;-176;2070;-149;-147;218;504;-16;16076
14:38:17.303;-145;-136;-143;-181;2070;-150;-143;-279;504;-16;16076
14:38:17.303;-146;-137;-157;-163;2070;-153;-142;-152;504;-16;16076
14:38:17.303;-148;-145;-140;-168;2070;-151;-145;-354;504;-16;16076
14:38:17.303;-149;-141;-141;-187;1943;-152;-146;-227;504;-16;16076
14:38:17.303;-147;-143;-135;-180;1608;-154;-146;-199;492;4;15976
14:38:17.303;-147;-144;-129;-150;1605;-152;-146;-72;492;4;15976
14:38:17.303;-148;-141;-151;-131;1411;-153;-145;-186;492;4;15976
14:38:17.303;-145;-135;-149;-155;1287;-152;-144;-59;492;4;15976
14:38:17.303;-144;-135;-143;-187;1463;-152;-145;-145;492;4;15976
14:38:17.303;-145;-140;-142;-188;1520;-154;-147;-18;492;4;15976
14:38:17.318;-149;-142;-139;-202;1577;-151;-144;-162;492;0;15940
14:38:17.318;-146;-142;-131;-219;1704;-153;-146;-35;492;0;15940
14:38:17.318;-146;-138;-129;-222;2070;-151;-145;92;492;0;15940
14:38:17.318;-144;-139;-141;-191;2070;-151;-145;214;492;0;15940
14:38:17.318;-143;-134;-144;-177;2070;-149;-142;-317;492;0;15940
14:38:17.318;-143;-132;-141;-232;2070;-149;-147;-190;492;0;15940
14:38:17.318;-145;-135;-124;-221;2070;-150;-146;165;548;-8;15968
14:38:17.318;-144;-137;-109;-234;2070;-151;-143;192;548;-8;15968
14:38:17.318;-143;-136;-123;-215;2070;-151;-146;182;548;-8;15968
14:38:17.318;-146;-141;-149;-126;2070;-152;-146;-246;548;-8;15968
14:38:17.318;-150;-151;-166;-135;2070;-153;-143;-362;548;-8;15968
14:38:17.318;-149;-145;-181;-129;1936;-151;-148;-235;548;-8;15968
14:38:17.318;-147;-144;-167;-154;2038;-152;-144;-283;512;-4;16016
14:38:17.318;-145;-142;-158;-176;1705;-153;-145;-156;512;-4;16016
14:38:17.318;-147;-141;-152;-182;1484;-154;-145;-283;512;-4;16016
14:38:17.318;-146;-142;-141;-175;1363;-153;-147;-254;512;-4;16016
14:38:17.318;-148;-138;-131;-171;1215;-153;-146;-127;512;-4;16016
14:38:17.318;-147;-138;-127;-170;1342;-152;-145;-254;512;-4;16016
14:38:17.333;-146;-131;-127;-136;1765;-152;-145;-338;604;40;15968
14:38:17.333;-147;-133;-128;-178;1690;-151;-144;-211;604;40;15968
14:38:17.333;-147;-135;-145;-207;2070;-150;-145;-309;604;40;15968
14:38:17.333;-148;-141;-156;-223;2070;-150;-147;-182;604;40;15968
14:38:17.333;-146;-142;-151;-205;2070;-150;-145;-172;604;40;15968
14:38:17.333;-145;-135;-148;-159;2070;-149;-145;212;604;40;15968
14:38:17.333;-146;-127;-149;-163;2070;-149;-142;-66;604;40;15968
14:38:17.333;-146;-135;-148;-165;2070;-148;-142;61;604;40;15968
14:38:17.333;-147;-141;-142;-174;2070;-151;-142;-325;552;108;15948
14:38:17.333;-146;-142;-139;-152;2070;-154;-150;-311;552;108;15948
14:38:17.333;-148;-143;-140;-145;2070;-154;-144;-405;552;108;15948
14:38:17.333;-144;-138;-139;-173;2070;-150;-148;108;552;108;15948
14:38:17.333;-147;-144;-142;-197;2070;-151;-146;76;552;108;15948
14:38:17.333;-146;-139;-138;-222;2070;-152;-145;-51;552;108;15948
14:38:17.349;-145;-139;-143;-240;2070;-152;-149;-55;504;-8;15932
14:38:17.349;-145;-139;-132;-239;1931;-152;-148;72;504;-8;15932
14:38:17.349;-143;-134;-142;-208;1867;-153;-144;-260;504;-8;15932
14:38:17.349;-145;-138;-145;-182;1925;-153;-145;-133;504;-8;15932
14:38:17.349;-147;-136;-142;-117;2056;-153;-145;-6;504;-8;15932
14:38:17.349;-146;-144;-129;-156;2036;-152;-145;121;504;-8;15932
14:38:17.349;-147;-142;-135;-212;2048;-152;-142;-305;508;-8;16048
14:38:17.349;-144;-138;-144;-239;2070;-152;-147;-178;508;-8;16048
14:38:17.349;-145;-141;-148;-254;2070;-151;-142;-154;508;-8;16048
14:38:17.349;-144;-139;-148;-248;2070;-151;-142;241;508;-8;16048
14:38:17.349;-142;-133;-155;-210;2070;-152;-143;-207;508;-8;16048
14:38:17.349;-143;-123;-152;-91;2070;-151;-144;-80;508;-8;16048
14:38:17.349;-144;-134;-140;-68;2070;-149;-145;237;500;-8;15840
14:38:17.349;-147;-146;-122;-152;2070;-151;-143;110;500;-8;15840
14:38:17.349;-148;-141;-130;-170;2070;-149;-144;-181;500;-8;15840
14:38:17.349;-146;-136;-139;-170;2070;-152;-148;-162;500;-8;15840
14:38:17.365;-146;-142;-134;-184;2070;-152;-146;-238;500;-8;15840
14:38:17.365;-147;-141;-139;-189;2070;-153;-149;-99;500;-8;15840
14:38:17.365;-146;-138;-131;-201;2070;-152;-143;-302;556;20;15904
14:38:17.365;-146;-137;-135;-163;2070;-151;-146;-175;556;20;15904
14:38:17.365;-144;-138;-131;-178;2070;-150;-148;-295;556;20;15904
14:38:17.365;-145;-141;-131;-181;1847;-152;-146;-234;556;20;15904
14:38:17.365;-144;-138;-142;-172;1773;-151;-143;-303;556;20;15904
14:38:17.365;-147;-137;-154;-182;1909;-150;-147;-176;556;20;15904
14:38:17.365;-144;-138;-133;-191;1911;-150;-143;-251;532;20;16088
14:38:17.365;-149;-138;-132;-182;2070;-151;-143;-124;532;20;16088
14:38:17.365;-147;-139;-165;-185;2070;-150;-146;245;532;20;16088
14:38:17.365;-147;-140;-138;-187;2070;-149;-145;236;532;20;16088
14:38:17.365;-146;-136;-133;-186;2070;-148;-143;15;532;20;16088
14:38:17.365;-147;-136;-168;-183;2070;-149;-144;142;532;20;16088
14:38:17.380;-144;-136;-150;-181;2070;-147;-145;221;516;-8;15912
14:38:17.380;-148;-138;-144;-184;2070;-148;-143;179;516;-8;15912
14:38:17.380;-147;-138;-139;-186;2070;-151;-143;-310;516;-8;15912
14:38:17.380;-145;-137;-139;-188;2070;-148;-144;-183;516;-8;15912
14:38:17.380;-144;-137;-136;-194;2070;-154;-141;-217;516;-8;15912
14:38:17.380;-144;-137;-132;-195;2070;-150;-146;254;516;-8;15912
14:38:17.380;-145;-143;-130;-191;2060;-152;-146;103;508;36;15972
14:38:17.380;-146;-142;-148;-190;1933;-151;-146;156;508;36;15972
14:38:17.380;-145;-144;-139;-192;1151;-153;-145;29;508;36;15972
14:38:17.380;-148;-143;-139;-191;1024;-152;-148;-98;508;36;15972
14:38:17.380;-146;-139;-134;-208;1057;-152;-146;232;508;36;15972
14:38:17.380;-146;-136;-143;-201;1184;-153;-144;105;508;36;15972
14:38:17.380;-145;-131;-141;-201;1338;-150;-148;-22;464;36;16176
14:38:17.380;-144;-131;-146;-204;1238;-149;-148;-149;464;36;16176
14:38:17.396;-143;-135;-139;-195;1373;-151;-142;-63;464;36;16176
14:38:17.396;-146;-138;-140;-112;1452;-151;-146;64;464;36;16176
14:38:17.396;-147;-139;-151;-144;1894;-149;-141;-63;464;36;16176
14:38:17.396;-148;-136;-143;-171;2021;-148;-145;64;464;36;16176
14:38:17.396;-146;-136;-132;-184;2070;-150;-150;-135;556;28;15908
14:38:17.396;-146;-140;-137;-192;2070;-152;-147;-127;556;28;15908
14:38:17.396;-146;-142;-141;-183;2070;-149;-141;-105;556;28;15908
14:38:17.396;-148;-136;-150;-163;2070;-147;-142;277;556;28;15908
14:38:17.396;-144;-133;-151;-165;2070;-150;-145;206;556;28;15908
14:38:17.396;-144;-139;-143;-193;1965;-149;-142;116;556;28;15908
14:38:17.396;-146;-140;-131;-196;1638;-151;-144;-11;508;8;15996
14:38:17.396;-144;-137;-128;-164;1718;-151;-147;-33;508;8;15996
14:38:17.396;-145;-140;-129;-200;1409;-153;-143;-160;508;8;15996
14:38:17.396;-145;-136;-145;-211;1282;-151;-143;-33;508;8;15996
14:38:17.412;-145;-132;-150;-208;1026;-152;-144;-160;508;8;15996
14:38:17.412;-143;-135;-144;-186;987;-152;-145;-200;508;8;15996
14:38:17.412;-144;-137;-144;-149;1060;-152;-144;-384;580;8;16104
14:38:17.412;-152;-140;-137;-143;1187;-149;-146;-257;580;8;16104
14:38:17.412;-149;-146;-133;-223;1321;-149;-147;-130;580;8;16104
14:38:17.412;-146;-139;-126;-294;1281;-149;-147;-114;580;8;16104
14:38:17.412;-146;-135;-134;-316;1455;-151;-143;-241;580;8;16104
14:38:17.412;-144;-131;-140;-243;1582;-148;-147;-114;580;8;16104
14:38:17.412;-142;-128;-156;-132;2070;-150;-146;13;504;12;15996
14:38:17.412;-147;-131;-155;-146;2070;-151;-142;140;504;12;15996
14:38:17.412;-146;-128;-152;-56;2070;-150;-143;-170;504;12;15996
14:38:17.412;-145;-138;-160;-87;2070;-147;-145;-43;504;12;15996
14:38:17.412;-145;-136;-146;-106;2070;-149;-143;-149;504;12;15996
14:38:17.412;-145;-145;-142;-148;2070;-150;-143;206;504;12;15996
14:38:17.427;-147;-147;-135;-175;2070;-151;-145;74;428;-52;16040
14:38:17.427;-150;-144;-140;-202;1995;-152;-147;-53;428;-52;16040
14:38:17.427;-147;-145;-140;-169;1796;-153;-143;-180;428;-52;16040
14:38:17.427;-149;-145;-132;-154;1813;-152;-146;-53;428;-52;16040
14:38:17.427;-147;-141;-133;-214;1639;-151;-145;-180;428;-52;16040
14:38:17.427;-144;-138;-138;-230;1512;-151;-145;-53;428;-52;16040
14:38:17.427;-144;-137;-145;-179;1269;-152;-145;19;512;44;15940
14:38:17.427;-143;-135;-145;-161;1153;-152;-146;38;512;44;15940
14:38:17.427;-147;-139;-132;-173;1323;-152;-144;50;512;44;15940
14:38:17.427;-143;-135;-137;-155;1450;-152;-146;173;512;44;15940
14:38:17.427;-147;-138;-139;-164;1860;-151;-145;278;512;44;15940
14:38:17.427;-145;-135;-141;-191;1924;-151;-145;275;512;44;15940
14:38:17.427;-144;-130;-150;-183;2029;-150;-141;20;604;-24;15900
14:38:17.427;-145;-140;-144;-181;2070;-151;-143;147;604;-24;15900
14:38:17.427;-149;-144;-143;-183;2070;-150;-144;250;604;-24;15900
14:38:17.427;-144;-138;-141;-167;2070;-151;-145;-86;604;-24;15900
14:38:17.443;-146;-141;-145;-247;2070;-150;-146;225;604;-24;15900
14:38:17.443;-148;-139;-140;-205;2070;-152;-146;174;604;-24;15900
14:38:17.443;-146;-141;-145;-247;2070;-150;-146;225;508;-16;15876
14:38:17.443;-144;-138;-134;-249;1727;-153;-145;98;508;-16;15876
14:38:17.443;-144;-137;-127;-222;1818;-150;-147;-24;508;-16;15876
14:38:17.443;-143;-139;-123;-182;1371;-151;-149;103;508;-16;15876
14:38:17.443;-143;-138;-143;-125;1284;-152;-144;-24;508;-16;15876
14:38:17.443;-149;-141;-146;-142;1196;-153;-145;103;508;-16;15876
14:38:17.443;-148;-144;-158;-171;1219;-151;-145;195;508;-44;15988
14:38:17.443;-146;-141;-139;-178;1415;-151;-145;249;508;-44;15988
14:38:17.443;-145;-140;-124;-193;1302;-153;-143;-299;508;-44;15988
14:38:17.443;-144;-137;-120;-197;1316;-151;-147;-172;508;-44;15988
14:38:17.443;-144;-140;-149;-200;1844;-151;-145;-111;508;-44;15988
14:38:17.443;-147;-139;-148;-205;1905;-153;-146;16;508;-44;15988
14:38:17.458;-151;-138;-155;-195;1968;-152;-145;120;536;40;16000
14:38:17.458;-145;-137;-145;-182;2070;-151;-146;-10;536;40;16000
14:38:17.458;-146;-134;-146;-188;2070;-150;-146;269;536;40;16000
14:38:17.458;-144;-129;-139;-193;2070;-150;-144;142;536;40;16000
14:38:17.458;-146;-138;-135;-198;2070;-148;-146;-70;536;40;16000
14:38:17.458;-144;-137;-138;-159;2070;-151;-150;-193;536;40;16000
14:38:17.458;-145;-140;-137;-163;2070;-153;-144;-358;452;-92;16016
14:38:17.458;-151;-148;-143;-177;2070;-154;-147;-231;452;-92;16016
14:38:17.458;-149;-145;-153;-184;2070;-152;-146;150;452;-92;16016
14:38:17.458;-145;-137;-150;-174;1948;-152;-145;23;452;-92;16016
14:38:17.458;-144;-135;-148;-175;1793;-152;-147;-104;452;-92;16016
14:38:17.458;-143;-131;-140;-177;1666;-153;-146;-51;452;-92;16016
14:38:17.458;-144;-132;-136;-179;998;-154;-143;-178;480;-16;16124
14:38:17.458;-147;-140;-135;-188;1053;-153;-147;-51;480;-16;16124
14:38:17.474;-151;-144;-141;-173;1291;-151;-146;76;480;-16;16124
14:38:17.474;-148;-140;-139;-186;1280;-152;-144;203;480;-16;16124
14:38:17.474;-150;-138;-126;-204;1116;-150;-146;272;480;-16;16124
14:38:17.474;-146;-142;-131;-208;1243;-152;-145;145;480;-16;16124
14:38:17.474;-147;-142;-145;-199;1919;-150;-142;18;492;-32;16008
14:38:17.474;-147;-138;-156;-178;2046;-151;-144;145;492;-32;16008
14:38:17.474;-144;-135;-157;-117;2070;-151;-144;236;492;-32;16008
14:38:17.474;-150;-137;-149;-179;2070;-151;-145;62;492;-32;16008
14:38:17.474;-147;-138;-145;-233;2070;-149;-143;8;492;-32;16008
14:38:17.474;-149;-145;-134;-206;2070;-150;-145;247;492;-32;16008
14:38:17.474;-144;-142;-135;-178;2070;-150;-141;-64;580;-20;16008
14:38:17.474;-143;-130;-135;-150;2070;-151;-143;63;580;-20;16008
14:38:17.474;-145;-141;-138;-161;2022;-155;-143;-341;580;-20;16008
14:38:17.474;-146;-142;-140;-160;2068;-152;-148;-214;580;-20;16008
14:38:17.490;-147;-138;-145;-186;1608;-153;-145;-102;580;-20;16008
14:38:17.490;-146;-135;-144;-199;1487;-153;-149;25;580;-20;16008
14:38:17.490;-148;-136;-144;-164;1643;-152;-146;112;508;-24;15936
14:38:17.490;-146;-138;-147;-179;1516;-153;-144;-15;508;-24;15936
14:38:17.490;-149;-145;-131;-200;1249;-152;-151;112;508;-24;15936
14:38:17.490;-148;-142;-132;-230;1122;-152;-148;177;508;-24;15936
14:38:17.490;-146;-140;-127;-209;1249;-152;-147;236;508;-24;15936
14:38:17.490;-146;-140;-139;-210;1221;-151;-144;243;508;-24;15936
14:38:17.490;-147;-144;-137;-239;1339;-152;-144;-281;516;-28;15992
14:38:17.490;-147;-134;-162;-209;1466;-150;-147;-154;516;-28;15992
14:38:17.490;-145;-131;-162;-130;1895;-150;-143;-27;516;-28;15992
14:38:17.490;-146;-138;-144;-122;2022;-150;-146;100;516;-28;15992
14:38:17.490;-147;-133;-147;-142;2070;-148;-146;265;516;-28;15992
14:38:17.490;-146;-135;-135;-189;2070;-149;-148;138;516;-28;15992
14:38:17.505;-144;-134;-142;-181;2070;-152;-146;1;500;-44;15936
14:38:17.505;-146;-128;-122;-141;2070;-150;-148;23;500;-44;15936
14:38:17.505;-148;-145;-120;-172;2070;-150;-146;233;500;-44;15936
14:38:17.505;-147;-149;-141;-191;2039;-153;-145;106;500;-44;15936
14:38:17.505;-147;-146;-149;-199;2022;-151;-147;-82;500;-44;15936
14:38:17.505;-148;-140;-154;-197;1895;-153;-148;-39;500;-44;15936
14:38:17.505;-145;-139;-140;-167;1417;-153;-145;-132;576;28;16080
14:38:17.505;-146;-142;-129;-152;1290;-153;-146;-5;576;28;16080
14:38:17.505;-149;-139;-135;-166;1498;-153;-146;122;576;28;16080
14:38:17.505;-145;-139;-142;-247;1371;-153;-145;249;576;28;16080
14:38:17.505;-146;-140;-156;-264;1096;-151;-145;122;576;28;16080
14:38:17.505;-147;-145;-142;-245;1223;-152;-146;-5;576;28;16080
14:38:17.505;-143;-137;-141;-180;1467;-151;-144;62;516;-48;15992
14:38:17.505;-146;-141;-151;-96;1594;-152;-145;188;516;-48;15992
14:38:17.505;-147;-140;-135;-19;2070;-151;-146;197;516;-48;15992
14:38:17.505;-148;-128;-139;-62;2070;-152;-144;247;516;-48;15992
14:38:17.505;-144;-134;-152;-142;1966;-150;-146;295;516;-48;15992
14:38:17.505;-147;-137;-164;-206;2070;-151;-142;-95;516;-48;15992
14:38:17.521;-147;-138;-149;-251;2070;-150;-141;-69;564;4;15972
14:38:17.521;-146;-138;-139;-228;2070;-150;-143;131;564;4;15972
14:38:17.521;-145;-137;-136;-193;2070;-150;-140;-272;564;4;15972
14:38:17.521;-144;-138;-140;-189;2070;-152;-148;-177;564;4;15972
14:38:17.521;-148;-144;-136;-193;2070;-153;-144;-370;564;4;15972
14:38:17.521;-144;-138;-138;-195;2070;-153;-147;-243;564;4;15972
14:38:17.521;-145;-139;-148;-197;1927;-153;-145;-116;540;60;15816
14:38:17.521;-146;-142;-143;-180;1800;-152;-145;11;540;60;15816
14:38:17.521;-145;-140;-138;-179;1346;-152;-145;75;540;60;15816
14:38:17.521;-144;-142;-137;-164;1237;-153;-149;-52;540;60;15816
14:38:17.521;-145;-143;-136;-171;1274;-153;-145;-72;540;60;15816
14:38:17.521;-149;-139;-137;-178;1358;-153;-147;316;540;60;15816
14:38:17.521;-147;-139;-145;-211;1680;-151;-147;189;480;28;15972
14:38:17.521;-148;-140;-141;-239;1807;-151;-147;296;480;28;15972
14:38:17.521;-146;-139;-141;-269;1644;-151;-143;169;480;28;15972
14:38:17.521;-147;-145;-140;-251;1771;-150;-146;288;480;28;15972
14:38:17.537;-147;-139;-142;-227;1898;-149;-147;289;480;28;15972
14:38:17.537;-148;-141;-137;-150;2025;-150;-143;299;480;28;15972
14:38:17.537;-147;-134;-129;-108;2070;-151;-144;-203;460;44;16076
14:38:17.537;-144;-129;-118;-150;2070;-148;-147;-76;460;44;16076
14:38:17.537;-143;-132;-130;-161;2070;-148;-141;-90;460;44;16076
14:38:17.537;-148;-142;-143;-179;2070;-148;-141;321;460;44;16076
14:38:17.537;-148;-146;-153;-170;2070;-153;-145;-285;460;44;16076
14:38:17.537;-144;-140;-155;-183;2070;-152;-146;-158;460;44;16076
14:38:17.537;-148;-139;-159;-177;1925;-154;-143;-111;432;48;15920
14:38:17.537;-146;-137;-149;-203;1798;-153;-147;-6;432;48;15920
14:38:17.537;-144;-143;-148;-214;1443;-152;-147;121;432;48;15920
14:38:17.537;-146;-144;-146;-209;1316;-153;-143;-6;432;48;15920
14:38:17.537;-145;-139;-136;-183;1449;-151;-151;-133;432;48;15920
14:38:17.537;-147;-141;-129;-151;1322;-150;-148;-117;432;48;15920
14:38:17.552;-149;-143;-135;-143;1100;-152;-143;-182;436;32;16072
14:38:17.552;-148;-141;-140;-169;1175;-152;-145;-55;436;32;16072
14:38:17.552;-144;-136;-141;-211;1608;-153;-146;72;436;32;16072
14:38:17.552;-144;-134;-146;-243;1735;-151;-145;199;436;32;16072
14:38:17.552;-145;-142;-149;-254;1828;-151;-142;-322;436;32;16072
14:38:17.552;-144;-134;-152;-167;1955;-151;-147;-195;436;32;16072
14:38:17.552;-145;-133;-144;-143;2070;-151;-142;50;592;40;15944
14:38:17.552;-143;-129;-142;-126;2070;-149;-141;177;592;40;15944
14:38:17.552;-143;-136;-137;-144;2070;-151;-144;-263;592;40;15944
14:38:17.552;-148;-144;-137;-156;2070;-152;-147;-136;592;40;15944
14:38:17.552;-152;-146;-134;-205;2070;-152;-142;-12;592;40;15944
14:38:17.552;-147;-143;-150;-212;2070;-151;-147;292;592;40;15944
14:38:17.552;-145;-133;-150;-194;2070;-151;-144;-126;516;24;16008
14:38:17.552;-143;-131;-144;-152;1943;-152;-145;1;516;24;16008
14:38:17.568;-145;-137;-140;-121;1595;-153;-146;-126;516;24;16008
14:38:17.568;-145;-139;-135;-152;1468;-154;-147;-14;516;24;16008
14:38:17.568;-149;-148;-147;-197;1161;-154;-143;-141;516;24;16008
14:38:17.568;-152;-146;-143;-164;1288;-152;-146;-14;516;24;16008
14:38:17.568;-145;-139;-139;-165;1102;-152;-145;-141;508;44;16024
14:38:17.568;-146;-134;-135;-183;1103;-152;-146;-14;508;44;16024
14:38:17.568;-145;-138;-131;-179;1054;-153;-143;-316;508;44;16024
14:38:17.568;-146;-139;-137;-210;1181;-152;-148;-189;508;44;16024
14:38:17.568;-146;-139;-140;-213;1709;-152;-144;-127;508;44;16024
14:38:17.568;-148;-140;-147;-200;1836;-152;-145;0;508;44;16024
14:38:17.568;-150;-140;-143;-191;2070;-152;-144;-127;508;44;16024
14:38:17.568;-146;-134;-145;-187;2070;-150;-146;0;508;44;16024
14:38:17.568;-146;-136;-150;-202;2070;-149;-141;-77;552;-32;15908
14:38:17.568;-146;-134;-142;-207;2070;-149;-142;326;552;-32;15908
14:38:17.584;-144;-136;-137;-199;2070;-149;-146;199;552;-32;15908
14:38:17.584;-146;-137;-138;-186;2070;-150;-148;72;552;-32;15908
14:38:17.584;-148;-145;-145;-168;2070;-152;-145;-51;552;-32;15908
14:38:17.584;-150;-149;-141;-154;1952;-150;-147;253;552;-32;15908
14:38:17.584;-148;-145;-138;-160;1774;-152;-145;126;620;4;15816
14:38:17.584;-144;-142;-130;-176;1661;-152;-147;88;620;4;15816
14:38:17.584;-144;-142;-122;-186;1475;-154;-144;-39;620;4;15816
14:38:17.584;-144;-140;-127;-194;1348;-151;-148;88;620;4;15816
14:38:17.584;-146;-142;-133;-211;1450;-152;-145;-140;620;4;15816
14:38:17.584;-145;-138;-161;-220;1577;-152;-145;-13;620;4;15816
14:38:17.584;-148;-140;-152;-223;1687;-154;-145;-214;568;-36;15924
14:38:17.584;-146;-144;-143;-173;1814;-150;-146;-87;568;-36;15924
14:38:17.584;-146;-142;-143;-165;1720;-151;-142;-91;568;-36;15924
14:38:17.584;-149;-144;-147;-182;1989;-151;-143;36;568;-36;15924
14:38:17.584;-146;-141;-136;-198;2070;-150;-145;216;568;-36;15924
14:38:17.584;-144;-132;-137;-174;2070;-151;-148;89;568;-36;15924
14:38:17.599;-146;-130;-135;-159;2070;-152;-142;-293;360;120;15932
14:38:17.599;-146;-137;-134;-178;2070;-151;-149;-166;360;120;15932
14:38:17.599;-145;-139;-133;-205;2070;-150;-146;276;360;120;15932
14:38:17.599;-147;-143;-140;-263;2070;-150;-144;149;360;120;15932
14:38:17.599;-145;-144;-156;-252;2070;-150;-152;-35;360;120;15932
14:38:17.599;-142;-129;-151;-190;2022;-149;-149;92;360;120;15932
14:38:17.599;-141;-128;-154;-140;1793;-153;-144;-35;612;-12;15976
14:38:17.599;-146;-128;-155;-62;1666;-152;-144;92;612;-12;15976
14:38:17.599;-150;-148;-135;-134;1127;-153;-146;161;612;-12;15976
14:38:17.599;-149;-145;-128;-205;1254;-152;-146;34;612;-12;15976
14:38:17.599;-146;-143;-131;-210;1104;-154;-144;-93;612;-12;15976
14:38:17.599;-144;-138;-134;-168;1024;-151;-147;34;612;-12;15976
14:38:17.599;-145;-131;-148;-107;1404;-151;-146;-93;408;28;16136
14:38:17.599;-144;-138;-151;-136;1301;-152;-147;34;408;28;16136
14:38:17.615;-148;-139;-142;-175;1421;-151;-145;87;408;28;16136
14:38:17.615;-145;-141;-141;-190;1579;-150;-148;-40;408;28;16136
14:38:17.615;-148;-139;-132;-207;1650;-150;-147;277;408;28;16136
14:38:17.615;-145;-137;-125;-229;1777;-148;-144;150;408;28;16136
14:38:17.615;-144;-136;-125;-239;2070;-147;-147;23;496;4;15968
14:38:17.615;-146;-139;-131;-246;2070;-150;-150;-104;496;4;15968
14:38:17.615;-145;-138;-149;-219;2070;-151;-143;-296;496;4;15968
14:38:17.615;-149;-146;-141;-177;2070;-151;-148;-169;496;4;15968
14:38:17.615;-147;-136;-165;-125;2070;-151;-146;212;496;4;15968
14:38:17.615;-148;-136;-167;-113;2070;-151;-145;85;496;4;15968
14:38:17.615;-146;-138;-150;-171;2043;-149;-150;-258;548;12;15968
14:38:17.615;-146;-142;-134;-235;1916;-152;-149;-144;548;12;15968
14:38:17.615;-146;-138;-143;-213;1789;-154;-141;-271;548;12;15968
14:38:17.615;-141;-130;-143;-162;1662;-153;-145;-144;548;12;15968
14:38:17.630;-145;-123;-142;-77;963;-154;-145;-123;548;12;15968
14:38:17.630;-147;-138;-135;-153;917;-152;-144;4;548;12;15968
14:38:17.630;-150;-150;-139;-205;991;-151;-146;198;456;40;16000
14:38:17.630;-149;-145;-151;-175;1118;-151;-146;187;456;40;16000
14:38:17.630;-149;-138;-140;-145;1124;-151;-143;-118;456;40;16000
14:38:17.630;-147;-138;-135;-180;1251;-151;-144;9;456;40;16000
14:38:17.630;-146;-142;-139;-189;1577;-151;-144;-118;456;40;16000
14:38:17.630;-149;-142;-146;-188;1704;-153;-147;-139;456;40;16000
14:38:17.630;-146;-140;-138;-189;2041;-152;-143;-102;504;76;15828
14:38:17.630;-144;-139;-135;-184;2070;-148;-145;25;504;76;15828
14:38:17.630;-149;-137;-145;-187;2070;-149;-141;-173;504;76;15828
14:38:17.630;-145;-136;-137;-190;2070;-148;-140;-46;504;76;15828
14:38:17.630;-141;-137;-136;-194;2070;-153;-143;-375;504;76;15828
14:38:17.630;-142;-137;-133;-199;2070;-151;-146;-248;504;76;15828
14:38:17.646;-145;-143;-139;-204;2070;-151;-144;-103;452;164;15684
14:38:17.646;-144;-139;-137;-206;2040;-153;-148;24;452;164;15684
14:38:17.646;-148;-140;-144;-197;2070;-154;-147;236;452;164;15684
14:38:17.646;-144;-141;-140;-194;1943;-153;-145;109;452;164;15684
14:38:17.646;-146;-140;-136;-157;1702;-152;-150;55;452;164;15684
14:38:17.646;-144;-141;-148;-167;1575;-151;-148;182;452;164;15684
14:38:17.646;-149;-144;-141;-186;1181;-153;-147;55;488;36;16028
14:38:17.646;-147;-144;-140;-175;1054;-152;-145;182;488;36;16028
14:38:17.646;-148;-141;-143;-180;1149;-152;-144;-384;488;36;16028
14:38:17.646;-147;-139;-147;-186;1276;-151;-146;-257;488;36;16028
14:38:17.646;-145;-133;-136;-185;1213;-151;-145;3;488;36;16028
14:38:17.646;-146;-139;-138;-188;1317;-151;-147;130;488;36;16028
14:38:17.646;-146;-139;-143;-192;1628;-150;-143;3;368;-64;16188
14:38:17.646;-145;-137;-151;-191;1755;-150;-143;130;368;-64;16188
14:38:17.662;-147;-137;-152;-190;2056;-150;-143;3;368;-64;16188
14:38:17.662;-149;-138;-137;-187;2070;-149;-146;33;368;-64;16188
14:38:17.662;-146;-140;-138;-174;2070;-149;-147;274;368;-64;16188
14:38:17.662;-146;-139;-137;-171;2070;-149;-145;147;368;-64;16188
14:38:17.662;-146;-139;-138;-184;2070;-149;-144;-172;560;-12;15884
14:38:17.662;-146;-140;-143;-185;2054;-150;-150;-111;560;-12;15884
14:38:17.662;-144;-136;-138;-186;1582;-153;-145;-238;560;-12;15884
14:38:17.662;-145;-141;-136;-204;1455;-153;-147;-111;560;-12;15884
14:38:17.662;-148;-143;-141;-212;1148;-153;-143;-193;560;-12;15884
14:38:17.662;-146;-138;-149;-208;1275;-153;-147;-66;560;-12;15884
14:38:17.662;-143;-135;-162;-193;1341;-151;-147;-247;628;-112;15912
14:38:17.662;-146;-136;-144;-153;1214;-153;-147;-174;628;-112;15912
14:38:17.662;-147;-143;-119;-185;1087;-153;-144;-301;628;-112;15912
14:38:17.662;-147;-145;-130;-190;960;-153;-148;-174;628;-112;15912
14:38:17.677;-147;-139;-142;-203;933;-152;-144;-101;628;-112;15912
14:38:17.677;-146;-133;-141;-213;1243;-153;-144;26;628;-112;15912
14:38:17.677;-147;-129;-150;-201;1202;-152;-147;286;552;4;16044
14:38:17.677;-146;-142;-165;-202;1329;-150;-145;159;552;4;16044
14:38:17.677;-146;-137;-156;-193;2025;-150;-142;32;552;4;16044
14:38:17.677;-146;-134;-142;-205;2070;-149;-139;159;552;4;16044
14:38:17.677;-147;-136;-127;-222;2070;-149;-143;-327;552;4;16044
14:38:17.677;-147;-136;-123;-189;2070;-148;-147;-200;552;4;16044
14:38:17.677;-147;-142;-136;-153;2070;-150;-144;-8;500;56;16068
14:38:17.677;-145;-139;-146;-64;2070;-148;-148;119;500;56;16068
14:38:17.677;-148;-140;-140;-80;2070;-152;-142;-112;500;56;16068
14:38:17.677;-144;-131;-134;-136;2070;-153;-144;15;500;56;16068
14:38:17.677;-145;-137;-146;-180;1791;-152;-144;-112;500;56;16068
14:38:17.677;-147;-145;-128;-195;1664;-153;-149;-232;500;56;16068
14:38:17.677;-149;-154;-138;-213;1107;-154;-145;-359;484;-12;15968
14:38:17.693;-149;-146;-145;-211;1080;-152;-148;-232;484;-12;15968
14:38:17.693;-143;-142;-146;-186;1249;-152;-148;-105;484;-12;15968
14:38:17.693;-144;-136;-150;-148;1247;-152;-144;-232;484;-12;15968
14:38:17.693;-143;-132;-145;-157;1408;-152;-149;-105;484;-12;15968
14:38:17.693;-144;-134;-127;-191;1281;-152;-149;22;484;-12;15968
14:38:17.693;-147;-141;-139;-228;1420;-152;-142;-105;436;-108;15972
14:38:17.693;-151;-145;-141;-237;1547;-152;-143;22;436;-108;15972
14:38:17.693;-149;-145;-133;-205;2070;-151;-146;149;436;-108;15972
14:38:17.693;-143;-133;-138;-185;2070;-148;-145;276;436;-108;15972
14:38:17.693;-145;-130;-153;-137;2070;-149;-143;62;436;-108;15972
14:38:17.693;-145;-132;-145;-166;2070;-151;-148;189;436;-108;15972
14:38:17.693;-143;-128;-151;-162;2070;-148;-147;271;516;-56;16064
14:38:17.693;-144;-138;-141;-166;2070;-150;-148;122;516;-56;16064
14:38:17.693;-150;-148;-142;-182;2070;-152;-145;-50;516;-56;16064
14:38:17.693;-150;-153;-139;-194;1971;-152;-147;-137;516;-56;16064
14:38:17.708;-150;-150;-143;-186;1751;-153;-144;-108;516;-56;16064
14:38:17.708;-148;-145;-142;-183;1781;-152;-147;19;516;-56;16064
14:38:17.708;-141;-127;-136;-175;1524;-153;-147;-108;488;-80;15996
14:38:17.708;-143;-119;-138;-185;1397;-152;-146;-227;488;-80;15996
14:38:17.708;-143;-133;-151;-204;1032;-152;-145;-127;488;-80;15996
14:38:17.708;-148;-141;-149;-197;974;-153;-148;0;488;-80;15996
14:38:17.708;-147;-147;-140;-156;1144;-152;-145;-127;488;-80;15996
14:38:17.708;-149;-140;-135;-155;1271;-152;-146;0;488;-80;15996
14:38:17.708;-147;-139;-141;-182;1467;-151;-149;127;568;-36;15916
14:38:17.708;-145;-137;-144;-177;1340;-151;-148;192;568;-36;15916
14:38:17.708;-146;-139;-153;-164;1467;-152;-142;65;568;-36;15916
14:38:17.708;-147;-139;-143;-183;1594;-150;-144;192;568;-36;15916
14:38:17.708;-146;-141;-141;-201;2038;-152;-144;65;568;-36;15916
14:38:17.708;-146;-138;-144;-205;2070;-150;-147;-62;568;-36;15916
14:38:17.708;-151;-139;-137;-212;2070;-152;-140;-259;528;-32;15828
14:38:17.708;-142;-135;-146;-213;2070;-150;-146;-132;528;-32;15828
14:38:17.708;-143;-135;-149;-214;2070;-149;-143;-208;528;-32;15828
14:38:17.708;-143;-138;-136;-211;2070;-152;-145;96;528;-32;15828
14:38:17.724;-142;-138;-136;-163;1957;-155;-142;-430;528;-32;15828
14:38:17.724;-146;-139;-127;-125;1872;-154;-149;-303;528;-32;15828
14:38:17.724;-145;-139;-128;-149;1636;-153;-144;-190;540;32;15980
14:38:17.724;-151;-144;-130;-158;1698;-153;-146;-63;540;32;15980
14:38:17.724;-145;-141;-143;-174;1298;-152;-147;-153;540;32;15980
14:38:17.724;-148;-144;-144;-196;1171;-152;-146;-160;540;32;15980
14:38:17.724;-148;-144;-147;-187;884;-153;-144;-287;540;32;15980
14:38:17.724;-147;-138;-150;-196;940;-152;-146;-160;540;32;15980
14:38:17.724;-146;-138;-150;-224;1259;-153;-147;-33;428;-32;16128
14:38:17.724;-146;-140;-146;-229;1361;-151;-144;94;428;-32;16128
14:38:17.724;-149;-137;-150;-187;1435;-152;-143;-277;428;-32;16128
14:38:17.724;-145;-132;-143;-156;1562;-150;-146;-150;428;-32;16128
14:38:17.740;-146;-139;-138;-134;2069;-151;-142;-166;428;-32;16128
14:38:17.740;-146;-146;-142;-157;2070;-151;-144;-39;428;-32;16128
14:38:17.740;-146;-139;-138;-170;2070;-151;-143;-329;552;-32;15872
14:38:17.740;-147;-141;-135;-200;2070;-151;-146;-202;552;-32;15872
14:38:17.740;-144;-134;-128;-179;2070;-152;-148;167;552;-32;15872
14:38:17.740;-147;-138;-132;-183;2070;-153;-150;40;552;-32;15872
14:38:17.740;-144;-134;-128;-179;2070;-152;-148;167;552;-32;15872
14:38:17.740;-146;-136;-134;-189;2070;-152;-146;-33;552;-32;15872
14:38:17.740;-147;-141;-155;-199;2070;-152;-150;-197;528;-52;16044
14:38:17.740;-146;-140;-161;-204;1943;-153;-148;-70;528;-52;16044
14:38:17.740;-147;-144;-148;-200;1421;-153;-144;-137;528;-52;16044
14:38:17.740;-148;-138;-140;-171;1377;-151;-144;-10;528;-52;16044
14:38:17.740;-146;-141;-143;-181;1466;-152;-147;130;528;-52;16044
14:38:17.740;-145;-138;-138;-170;1593;-151;-146;255;528;-52;16044
14:38:17.740;-145;-137;-137;-169;1365;-154;-143;128;564;-8;16048
14:38:17.740;-146;-140;-136;-185;1411;-152;-148;1;564;-8;16048
14:38:17.740;-146;-136;-135;-192;1824;-152;-141;-126;564;-8;16048
14:38:17.740;-146;-137;-139;-214;1951;-153;-143;1;564;-8;16048
14:38:17.755;-148;-139;-144;-214;2070;-152;-145;163;564;-8;16048
14:38:17.755;-147;-141;-143;-201;2070;-150;-146;163;564;-8;16048
14:38:17.755;-145;-137;-140;-191;2070;-151;-145;261;516;52;16000
14:38:17.755;-144;-137;-136;-179;2070;-149;-146;166;516;52;16000
14:38:17.755;-144;-137;-124;-173;2070;-151;-141;-133;516;52;16000
14:38:17.755;-145;-139;-143;-199;2070;-152;-146;-6;516;52;16000
14:38:17.755;-144;-138;-125;-251;2070;-153;-144;-374;516;52;16000
14:38:17.755;-148;-141;-116;-260;2070;-154;-150;-266;516;52;16000
14:38:17.755;-146;-140;-162;-190;2070;-152;-147;102;536;24;16036
14:38:17.755;-145;-132;-153;-144;2070;-153;-146;-25;536;24;16036
14:38:17.755;-147;-132;-151;-121;1833;-151;-145;-152;536;24;16036
14:38:17.755;-150;-141;-128;-101;1706;-153;-146;-25;536;24;16036
14:38:17.755;-147;-142;-137;-169;1065;-152;-143;-152;536;24;16036
14:38:17.755;-148;-144;-154;-171;938;-154;-149;-25;536;24;16036
14:38:17.771;-148;-134;-147;-136;1162;-153;-143;-152;532;0;15960
14:38:17.771;-148;-143;-142;-172;1289;-152;-142;-25;532;0;15960
14:38:17.771;-150;-141;-143;-179;1395;-151;-146;139;532;0;15960
14:38:17.771;-145;-136;-150;-172;1522;-150;-146;185;532;0;15960
14:38:17.771;-146;-137;-152;-163;1672;-152;-143;58;532;0;15960
14:38:17.771;-144;-133;-145;-183;1799;-150;-145;185;532;0;15960
14:38:17.771;-145;-138;-146;-197;2070;-152;-146;192;536;64;16024
14:38:17.771;-151;-143;-139;-178;2070;-151;-144;291;536;64;16024
14:38:17.771;-146;-143;-144;-165;2070;-150;-146;207;536;64;16024
14:38:17.771;-146;-139;-141;-155;2070;-148;-146;284;536;64;16024
14:38:17.771;-144;-137;-140;-162;2070;-150;-143;46;536;64;16024
14:38:17.771;-145;-137;-136;-162;2070;-150;-148;120;536;64;16024
14:38:17.771;-144;-135;-133;-203;2070;-150;-148;-262;484;-20;15980
14:38:17.771;-146;-135;-135;-235;2070;-153;-147;-135;484;-20;15980
14:38:17.787;-147;-143;-142;-217;1890;-153;-145;-161;484;-20;15980
14:38:17.787;-145;-142;-143;-198;1763;-152;-146;-163;484;-20;15980
14:38:17.787;-148;-140;-134;-189;1558;-153;-146;-36;484;-20;15980
14:38:17.787;-143;-138;-137;-202;1443;-152;-146;-68;484;-20;15980
14:38:17.787;-146;-137;-145;-226;1602;-150;-147;-193;508;-56;16108
14:38:17.787;-145;-136;-137;-238;1475;-151;-146;-115;508;-56;16108
14:38:17.787;-145;-143;-153;-259;1448;-153;-145;-438;508;-56;16108
14:38:17.787;-146;-143;-142;-208;1397;-153;-147;-311;508;-56;16108
14:38:17.787;-145;-138;-131;-148;1605;-151;-147;-184;508;-56;16108
14:38:17.787;-144;-140;-123;-167;1732;-153;-143;-266;508;-56;16108
14:38:17.787;-145;-133;-146;-126;2070;-150;-149;-160;492;36;15908
14:38:17.787;-148;-141;-147;-129;2070;-150;-145;-58;492;36;15908
14:38:17.787;-149;-140;-143;-151;2070;-150;-140;-398;492;36;15908
14:38:17.787;-145;-137;-147;-132;2070;-150;-145;-271;492;36;15908
14:38:17.803;-149;-144;-157;-155;2070;-151;-144;-39;492;36;15908
14:38:17.803;-147;-142;-144;-147;2070;-153;-146;88;492;36;15908
14:38:17.803;-148;-141;-137;-183;2070;-152;-146;144;532;0;16020
14:38:17.803;-147;-142;-140;-220;2070;-152;-147;235;532;0;16020
14:38:17.803;-146;-144;-139;-217;1854;-155;-141;108;532;0;16020
14:38:17.803;-147;-142;-138;-193;1727;-151;-146;235;532;0;16020
14:38:17.803;-147;-140;-143;-191;1584;-152;-146;108;532;0;16020
14:38:17.803;-147;-138;-151;-185;1457;-152;-144;74;532;0;16020
14:38:17.803;-152;-141;-147;-172;1060;-153;-144;-53;532;0;16020
14:38:17.803;-145;-140;-136;-173;1187;-152;-146;74;532;0;16020
14:38:17.803;-143;-138;-133;-171;1088;-153;-144;-104;504;8;15916
14:38:17.803;-142;-132;-136;-166;1175;-151;-147;23;504;8;15916
14:38:17.803;-143;-132;-137;-189;1546;-152;-146;150;504;8;15916
14:38:17.803;-144;-138;-138;-208;1512;-150;-148;122;504;8;15916
14:38:17.818;-146;-138;-146;-199;1798;-154;-145;45;504;8;15916
14:38:17.818;-147;-138;-153;-191;1925;-151;-147;-29;504;8;15916
14:38:17.818;-146;-139;-151;-185;2070;-151;-146;98;508;-48;15944
14:38:17.818;-147;-137;-142;-171;2070;-150;-144;50;508;-48;15944
14:38:17.818;-146;-142;-138;-162;2070;-149;-150;-219;508;-48;15944
14:38:17.818;-148;-142;-138;-184;2070;-151;-148;-112;508;-48;15944
14:38:17.818;-146;-136;-135;-189;2070;-151;-145;-105;508;-48;15944
14:38:17.818;-145;-138;-144;-230;2070;-153;-147;243;508;-48;15944
14:38:17.818;-146;-138;-139;-244;2070;-151;-142;-314;520;-28;15920
14:38:17.818;-145;-141;-142;-237;2070;-150;-145;-187;520;-28;15920
14:38:17.818;-145;-136;-146;-176;1812;-153;-150;-235;520;-28;15920
14:38:17.818;-146;-138;-129;-166;1685;-153;-147;-111;520;-28;15920
14:38:17.818;-144;-136;-102;-158;1217;-153;-144;-202;520;-28;15920
14:38:17.818;-145;-139;-111;-207;1212;-154;-146;-75;520;-28;15920
14:38:17.834;-146;-143;-132;-238;1340;-153;-146;-1;528;-20;16084
14:38:17.834;-148;-140;-172;-226;1219;-153;-145;126;528;-20;16084
14:38:17.834;-146;-143;-176;-150;1160;-152;-146;242;528;-20;16084
14:38:17.834;-149;-142;-156;-103;1707;-152;-145;115;528;-20;16084
14:38:17.834;-146;-137;-141;-116;1732;-151;-142;-171;528;-20;16084
14:38:17.834;-146;-134;-143;-142;1859;-151;-143;-44;528;-20;16084
14:38:17.834;-147;-134;-160;-195;2070;-151;-145;83;488;-20;16160
14:38:17.834;-148;-140;-157;-248;2070;-150;-147;-44;488;-20;16160
14:38:17.834;-150;-138;-151;-230;2070;-153;-143;-261;488;-20;16160
14:38:17.834;-148;-138;-140;-179;2070;-150;-145;-134;488;-20;16160
14:38:17.834;-146;-138;-134;-104;2070;-150;-142;-159;488;-20;16160
14:38:17.834;-147;-138;-130;-82;2070;-149;-142;191;488;-20;16160
14:38:17.834;-147;-138;-133;-174;2070;-153;-143;-323;492;32;16004
14:38:17.834;-145;-138;-132;-218;2070;-154;-147;-196;492;32;16004
14:38:17.849;-146;-135;-122;-227;1801;-153;-143;-231;492;32;16004
14:38:17.849;-145;-143;-141;-215;1674;-152;-146;-104;492;32;16004
14:38:17.849;-148;-145;-143;-188;1738;-152;-145;10;492;32;16004
14:38:17.849;-148;-141;-143;-126;1611;-151;-146;137;492;32;16004
14:38:17.849;-147;-137;-132;-149;1100;-153;-143;10;504;-28;16060
14:38:17.849;-147;-145;-139;-174;1100;-153;-147;137;504;-28;16060
14:38:17.849;-147;-140;-141;-175;1461;-151;-145;106;504;-28;16060
14:38:17.849;-147;-138;-141;-179;1401;-152;-144;184;504;-28;16060
14:38:17.849;-146;-142;-138;-174;1438;-152;-144;-281;504;-28;16060
14:38:17.849;-148;-140;-140;-179;1565;-153;-146;-154;504;-28;16060
14:38:17.849;-144;-136;-146;-190;1832;-150;-142;-27;448;24;15984
14:38:17.849;-146;-135;-155;-195;1959;-151;-144;100;448;24;15984
14:38:17.849;-148;-135;-155;-190;2070;-149;-145;223;448;24;15984
14:38:17.849;-146;-135;-152;-182;2070;-149;-146;-33;448;24;15984
14:38:17.865;-146;-137;-143;-186;2070;-150;-143;-344;448;24;15984
14:38:17.865;-145;-140;-144;-187;2070;-152;-149;-217;448;24;15984
14:38:17.865;-145;-138;-137;-200;2070;-150;-142;-201;504;-44;15944
14:38:17.865;-147;-140;-130;-209;2070;-149;-147;126;504;-44;15944
14:38:17.865;-145;-139;-142;-216;1993;-153;-149;8;504;-44;15944
14:38:17.865;-145;-140;-143;-208;1308;-152;-149;-119;504;-44;15944
14:38:17.865;-147;-137;-130;-166;1271;-153;-143;-276;504;-44;15944
14:38:17.865;-145;-141;-131;-202;1144;-154;-145;-149;504;-44;15944
14:38:17.865;-144;-140;-146;-200;1075;-153;-145;-411;484;12;15896
14:38:17.865;-147;-138;-139;-214;948;-153;-146;-284;484;12;15896
14:38:17.865;-146;-142;-136;-182;897;-152;-144;-114;484;12;15896
14:38:17.865;-143;-135;-134;-161;838;-152;-146;13;484;12;15896
14:38:17.865;-146;-142;-127;-161;1155;-152;-145;9;484;12;15896
14:38:17.865;-144;-135;-136;-180;1131;-151;-146;-118;484;12;15896
14:38:17.880;-147;-139;-150;-184;1336;-152;-143;-245;516;-36;15952
14:38:17.880;-148;-140;-145;-176;1463;-151;-146;-118;516;-36;15952
14:38:17.880;-147;-138;-136;-181;1768;-152;-143;-34;516;-36;15952
14:38:17.880;-142;-132;-147;-178;1895;-151;-145;93;516;-36;15952
14:38:17.880;-148;-138;-163;-179;2070;-152;-147;-34;516;-36;15952
14:38:17.880;-150;-147;-152;-170;2070;-150;-147;37;516;-36;15952
14:38:17.880;-146;-146;-144;-169;2070;-149;-144;-14;556;-24;15924
14:38:17.880;-146;-136;-143;-150;2070;-153;-147;153;556;-24;15924
14:38:17.880;-146;-141;-128;-226;1441;-152;-147;190;556;-24;15924
14:38:17.880;-148;-145;-137;-216;1568;-153;-144;190;556;-24;15924
14:38:17.880;-146;-141;-128;-226;1441;-152;-147;190;556;-24;15924
14:38:17.880;-146;-140;-134;-207;1713;-153;-145;63;556;-24;15924
14:38:17.880;-149;-145;-150;-180;1250;-153;-144;-64;480;-64;15972
14:38:17.880;-146;-137;-149;-169;1274;-152;-145;63;480;-64;15972
14:38:17.896;-144;-139;-147;-157;1007;-153;-145;-64;480;-64;15972
14:38:17.896;-146;-141;-135;-182;1063;-152;-146;-69;480;-64;15972
14:38:17.896;-148;-139;-134;-187;1098;-152;-145;58;480;-64;15972
14:38:17.896;-144;-128;-138;-193;1225;-151;-145;-69;480;-64;15972
14:38:17.896;-143;-134;-138;-184;1738;-151;-142;-196;496;-4;16004
14:38:17.896;-146;-138;-142;-215;1865;-151;-143;-69;496;-4;16004
14:38:17.896;-146;-138;-136;-246;1956;-151;-142;-326;496;-4;16004
14:38:17.896;-148;-145;-136;-273;2070;-152;-148;-220;496;-4;16004
14:38:17.896;-148;-143;-131;-270;2070;-151;-144;-47;496;-4;16004
14:38:17.896;-145;-137;-135;-202;2070;-149;-148;80;496;-4;16004
14:38:17.896;-143;-125;-160;-161;2070;-150;-146;178;536;40;16000
14:38:17.896;-144;-130;-150;-79;2070;-154;-144;-82;536;40;16000
14:38:17.896;-145;-134;-138;-54;2070;-147;-153;181;536;40;16000
14:38:17.896;-150;-140;-150;-103;1943;-149;-149;121;536;40;16000
14:38:17.896;-147;-134;-144;-107;1855;-153;-146;57;536;40;16000
14:38:17.911;-152;-139;-148;-170;1526;-152;-144;179;536;40;16000
14:38:17.911;-147;-144;-159;-205;1032;-152;-146;179;512;-44;15948
14:38:17.911;-146;-140;-149;-209;1159;-154;-146;52;512;-44;15948
14:38:17.911;-145;-137;-141;-206;976;-152;-143;-75;512;-44;15948
14:38:17.911;-146;-142;-131;-198;937;-151;-147;52;512;-44;15948
14:38:17.911;-145;-138;-134;-159;1089;-153;-145;41;512;-44;15948
14:38:17.911;-144;-134;-135;-95;962;-153;-146;-86;512;-44;15948
14:38:17.911;-148;-137;-138;-147;926;-153;-142;-332;528;-52;16020
14:38:17.911;-145;-140;-144;-181;1053;-151;-148;-205;528;-52;16020
14:38:17.911;-147;-134;-138;-208;1531;-147;-145;-78;528;-52;16020
14:38:17.911;-144;-139;-136;-224;1615;-149;-143;-63;528;-52;16020
14:38:17.911;-144;-138;-138;-204;2070;-148;-146;-78;528;-52;16020
14:38:17.911;-145;-139;-132;-210;2070;-147;-148;49;528;-52;16020
14:38:17.911;-145;-140;-130;-231;2070;-150;-142;-150;560;20;15992
14:38:17.911;-147;-146;-129;-220;2070;-148;-141;-23;560;20;15992
14:38:17.911;-148;-142;-147;-176;2070;-150;-145;246;560;20;15992
14:38:17.911;-145;-142;-150;-175;2070;-152;-146;119;560;20;15992
14:38:17.911;-146;-142;-151;-179;2070;-152;-142;-418;560;20;15992
14:38:17.911;-144;-138;-139;-196;1943;-150;-148;-291;560;20;15992
14:38:17.927;-144;-134;-151;-204;2070;-150;-145;-321;508;36;16092
14:38:17.927;-146;-136;-153;-172;1740;-152;-146;-194;508;36;16092
14:38:17.927;-148;-140;-148;-130;1596;-153;-146;-89;508;36;16092
14:38:17.927;-146;-142;-133;-153;1469;-153;-146;-177;508;36;16092
14:38:17.927;-149;-149;-119;-176;1182;-152;-146;-50;508;36;16092
14:38:17.927;-146;-139;-131;-184;1309;-151;-144;-177;508;36;16092
14:38:17.927;-146;-137;-142;-118;1693;-152;-147;-189;472;-32;16036
14:38:17.927;-147;-136;-145;-156;1601;-151;-147;-62;472;-32;16036
14:38:17.927;-146;-136;-151;-170;1668;-151;-145;-16;472;-32;16036
14:38:17.927;-149;-138;-144;-220;1890;-152;-148;111;472;-32;16036
14:38:17.927;-146;-139;-149;-237;2017;-150;-147;238;472;-32;16036
14:38:17.927;-145;-131;-148;-197;2070;-150;-143;111;472;-32;16036
14:38:17.927;-144;-132;-141;-182;2070;-149;-148;-104;572;8;16072
14:38:17.927;-147;-137;-138;-186;2070;-148;-146;-78;572;8;16072
14:38:17.927;-146;-137;-145;-175;2070;-150;-141;-367;572;8;16072
14:38:17.927;-144;-135;-139;-185;2070;-150;-146;-240;572;8;16072
14:38:17.943;-144;-142;-145;-185;2070;-151;-147;85;572;8;16072
14:38:17.943;-146;-143;-141;-186;2070;-150;-146;212;572;8;16072
14:38:17.943;-147;-141;-140;-192;2070;-152;-147;152;536;-28;16044
14:38:17.943;-146;-143;-136;-198;2070;-151;-146;-85;536;-28;16044
14:38:17.943;-145;-142;-133;-196;1930;-152;-144;-202;536;-28;16044
14:38:17.943;-143;-140;-129;-194;1870;-152;-146;-75;536;-28;16044
14:38:17.943;-147;-140;-128;-199;1516;-154;-146;-129;536;-28;16044
14:38:17.943;-147;-147;-150;-203;1389;-153;-146;-132;536;-28;16044
14:38:17.943;-148;-141;-147;-185;1417;-154;-144;-407;540;-40;15916
14:38:17.943;-142;-138;-132;-188;1544;-150;-145;-280;540;-40;15916
14:38:17.943;-145;-138;-136;-180;1885;-150;-143;-233;540;-40;15916
14:38:17.943;-146;-142;-141;-173;1980;-149;-145;-106;540;-40;15916
14:38:17.958;-148;-139;-149;-169;2058;-150;-143;84;540;-40;15916
14:38:17.958;-147;-137;-154;-182;2070;-148;-149;-43;540;-40;15916
14:38:17.958;-147;-133;-147;-178;2070;-151;-143;-141;536;-52;15912
14:38:17.958;-146;-128;-143;-171;2070;-151;-146;203;536;-52;15912
14:38:17.958;-145;-140;-152;-187;2070;-149;-142;-233;536;-52;15912
14:38:17.958;-147;-137;-148;-164;2070;-148;-146;-106;536;-52;15912
14:38:17.958;-146;-134;-139;-181;2070;-150;-151;61;536;-52;15912
14:38:17.958;-145;-137;-142;-169;2070;-150;-148;94;536;-52;15912
14:38:17.958;-146;-139;-141;-166;2070;-150;-146;76;544;16;15984
14:38:17.958;-146;-140;-145;-182;2070;-153;-143;195;544;16;15984
14:38:17.958;-148;-144;-135;-189;2070;-153;-145;-423;544;16;15984
14:38:17.958;-146;-143;-140;-194;1943;-153;-147;-296;544;16;15984
14:38:17.958;-150;-141;-132;-194;1816;-152;-146;163;544;16;15984
14:38:17.958;-145;-142;-126;-197;1689;-153;-146;36;544;16;15984
14:38:17.958;-147;-146;-131;-201;1613;-151;-146;-300;532;-88;16068
14:38:17.958;-144;-134;-128;-191;1486;-150;-147;-173;532;-88;16068
14:38:17.974;-143;-128;-130;-209;1500;-154;-145;-259;532;-88;16068
14:38:17.974;-149;-138;-152;-240;1461;-151;-147;49;532;-88;16068
14:38:17.974;-147;-142;-156;-237;2070;-150;-146;176;532;-88;16068
14:38:17.974;-146;-149;-157;-195;1993;-149;-144;49;532;-88;16068
14:38:17.974;-145;-134;-160;-101;2070;-147;-147;-53;484;16;15872
14:38:17.974;-145;-130;-145;-152;2070;-150;-149;23;484;16;15872
14:38:17.974;-144;-130;-149;-209;2070;-149;-141;-6;484;16;15872
14:38:17.974;-146;-132;-140;-200;2070;-148;-147;187;484;16;15872
14:38:17.974;-150;-140;-150;-175;2070;-149;-146;226;484;16;15872
14:38:17.974;-148;-141;-148;-131;2070;-149;-147;256;484;16;15872
14:38:17.974;-149;-148;-126;-145;2070;-153;-142;-408;512;-128;15980
14:38:17.974;-150;-147;-128;-142;2049;-150;-148;-281;512;-128;15980
14:38:17.974;-144;-132;-136;-146;2070;-153;-145;-235;512;-128;15980
14:38:17.974;-144;-131;-144;-147;1842;-152;-146;-108;512;-128;15980
14:38:17.990;-147;-142;-149;-177;1543;-153;-146;-30;512;-128;15980
14:38:17.990;-148;-143;-134;-194;1416;-154;-146;-130;512;-128;15980
14:38:17.990;-146;-143;-128;-188;1190;-153;-146;-3;568;-4;16000
14:38:17.990;-145;-137;-124;-206;1257;-152;-144;-130;568;-4;16000
14:38:17.990;-146;-144;-141;-168;1341;-150;-146;-217;568;-4;16000
14:38:17.990;-146;-143;-146;-155;1024;-151;-146;-126;568;-4;16000
14:38:17.990;-145;-139;-146;-147;1076;-151;-143;-314;568;-4;16000
14:38:17.990;-147;-139;-155;-179;1203;-152;-147;-187;568;-4;16000
14:38:17.990;-147;-138;-157;-207;1597;-151;-143;-233;576;-28;16072
14:38:17.990;-146;-135;-146;-261;1724;-149;-146;-106;576;-28;16072
14:38:17.990;-146;-138;-144;-230;2070;-149;-149;-219;576;-28;16072
14:38:17.990;-146;-139;-147;-236;2070;-150;-145;-92;576;-28;16072
14:38:17.990;-146;-137;-141;-258;2070;-151;-144;80;576;-28;16072
14:38:17.990;-145;-134;-134;-218;2070;-152;-148;189;576;-28;16072
14:38:18.005;-145;-136;-135;-191;2070;-150;-142;-140;496;-56;16052
14:38:18.005;-146;-142;-138;-162;2070;-152;-144;-13;496;-56;16052
14:38:18.005;-149;-145;-145;-125;2070;-155;-144;-371;496;-56;16052
14:38:18.005;-146;-140;-145;-134;1971;-152;-146;-244;496;-56;16052
14:38:18.005;-146;-141;-136;-198;1611;-151;-144;-213;496;-56;16052
14:38:18.005;-145;-147;-137;-189;1579;-151;-145;-86;496;-56;16052
14:38:18.005;-148;-140;-139;-187;1401;-153;-144;-213;520;-36;15892
14:38:18.005;-143;-132;-126;-187;1511;-152;-145;-97;520;-36;15892
14:38:18.005;-144;-130;-139;-135;1453;-153;-144;-350;520;-36;15892
14:38:18.005;-150;-135;-148;-105;1580;-152;-146;-223;520;-36;15892
14:38:18.005;-147;-138;-126;-147;1849;-150;-145;-122;520;-36;15892
14:38:18.005;-146;-139;-148;-163;1917;-150;-146;5;520;-36;15892
14:38:18.005;-147;-140;-149;-163;1939;-151;-145;49;528;-4;15916
14:38:18.005;-146;-139;-138;-184;2070;-149;-149;123;528;-4;15916
14:38:18.021;-147;-135;-141;-196;2070;-151;-143;-107;528;-4;15916
14:38:18.021;-146;-134;-150;-199;2070;-151;-146;20;528;-4;15916
14:38:18.021;-150;-138;-148;-194;2070;-150;-146;242;528;-4;15916
14:38:18.021;-144;-140;-142;-174;2070;-148;-146;250;528;-4;15916
14:38:18.021;-146;-138;-139;-177;2070;-151;-142;-333;512;-20;15908
14:38:18.021;-148;-137;-144;-186;2070;-149;-150;-206;512;-20;15908
14:38:18.021;-147;-139;-142;-183;2070;-150;-144;-387;512;-20;15908
14:38:18.021;-146;-140;-143;-189;2070;-152;-145;-260;512;-20;15908
14:38:18.021;-146;-141;-145;-195;1943;-153;-145;-352;512;-20;15908
14:38:18.021;-150;-143;-133;-202;1816;-151;-147;-225;512;-20;15908
14:38:18.021;-146;-141;-131;-207;1152;-154;-139;-352;556;92;15928
14:38:18.021;-143;-139;-130;-218;1279;-154;-143;-225;556;92;15928
14:38:18.021;-146;-143;-124;-221;1217;-153;-144;-356;556;92;15928
14:38:18.021;-146;-141;-131;-201;1135;-151;-146;-229;556;92;15928
14:38:18.037;-145;-138;-145;-165;1354;-152;-145;-102;556;92;15928
14:38:18.037;-147;-139;-143;-184;1456;-151;-147;25;556;92;15928
14:38:18.037;-149;-144;-138;-188;1736;-152;-144;59;568;-28;15996
14:38:18.037;-145;-136;-138;-165;1863;-150;-145;186;568;-28;15996
14:38:18.037;-145;-135;-144;-173;2070;-149;-146;59;568;-28;15996
14:38:18.037;-144;-137;-166;-177;2070;-148;-146;186;568;-28;15996
14:38:18.037;-146;-133;-158;-165;2070;-148;-143;101;568;-28;15996
14:38:18.037;-144;-133;-156;-163;2070;-149;-148;110;568;-28;15996
14:38:18.037;-143;-134;-140;-184;2070;-151;-143;-253;568;-28;15996
14:38:18.037;-148;-139;-136;-164;2070;-150;-146;-126;568;-28;15996
14:38:18.037;-143;-134;-137;-174;2070;-150;-150;-155;464;36;16048
14:38:18.037;-145;-139;-136;-168;2070;-150;-147;-132;464;36;16048
14:38:18.037;-148;-141;-122;-160;2070;-153;-144;-276;464;36;16048
14:38:18.037;-145;-140;-145;-179;1989;-152;-145;-149;464;36;16048
14:38:18.053;-144;-141;-135;-195;1885;-154;-146;27;464;36;16048
14:38:18.053;-147;-142;-143;-223;1758;-153;-143;76;464;36;16048
14:38:18.053;-145;-143;-139;-252;1454;-153;-145;-51;508;-60;16052
14:38:18.053;-145;-142;-137;-238;1510;-150;-146;36;508;-60;16052
14:38:18.053;-145;-145;-145;-203;1578;-151;-145;-165;508;-60;16052
14:38:18.053;-146;-138;-145;-166;1587;-151;-145;-38;508;-60;16052
14:38:18.053;-145;-139;-138;-151;1630;-150;-144;-11;508;-60;16052
14:38:18.053;-145;-139;-139;-151;1770;-152;-148;48;508;-60;16052
14:38:18.053;-149;-135;-137;-165;2070;-149;-142;-79;512;-52;15888
14:38:18.053;-143;-133;-132;-191;2070;-149;-146;48;512;-52;15888
14:38:18.053;-145;-132;-124;-204;2070;-149;-145;224;512;-52;15888
14:38:18.053;-145;-137;-119;-208;2070;-147;-147;253;512;-52;15888
14:38:18.053;-145;-142;-138;-203;2070;-149;-143;-308;512;-52;15888
14:38:18.053;-143;-129;-150;-127;2070;-150;-147;-181;512;-52;15888
14:38:18.068;-147;-138;-161;-172;2070;-151;-146;134;456;28;15896
14:38:18.068;-151;-141;-175;-173;2070;-152;-144;243;456;28;15896
14:38:18.068;-148;-142;-172;-164;2070;-153;-146;201;456;28;15896
14:38:18.068;-146;-139;-148;-152;2070;-150;-147;-310;456;28;15896
14:38:18.068;-145;-139;-139;-178;1903;-152;-143;-195;456;28;15896
14:38:18.068;-145;-141;-132;-222;1776;-153;-148;-68;456;28;15896
14:38:18.068;-143;-143;-130;-278;1730;-152;-145;-250;520;-28;15948
14:38:18.068;-143;-140;-132;-301;1625;-153;-146;-123;520;-28;15948
14:38:18.068;-146;-140;-134;-305;1502;-152;-145;-50;520;-28;15948
14:38:18.068;-143;-135;-148;-230;1614;-152;-145;-125;520;-28;15948
14:38:18.068;-145;-125;-145;-118;1653;-151;-146;228;520;-28;15948
14:38:18.068;-145;-123;-134;-53;1780;-152;-145;101;520;-28;15948
14:38:18.068;-147;-130;-140;-78;2070;-152;-146;-26;516;-8;15996
14:38:18.068;-148;-142;-137;-100;2070;-149;-145;-65;516;-8;15996
14:38:18.083;-151;-143;-145;-120;2070;-153;-144;-292;516;-8;15996
14:38:18.083;-149;-145;-145;-145;2070;-150;-148;-165;516;-8;15996
14:38:18.083;-150;-147;-149;-159;2070;-149;-147;243;516;-8;15996
14:38:18.083;-149;-150;-131;-188;2070;-151;-141;116;516;-8;15996
14:38:18.083;-147;-147;-143;-199;2070;-149;-148;-179;548;-12;16056
14:38:18.083;-145;-137;-145;-191;2070;-151;-146;-142;548;-12;16056
14:38:18.083;-142;-132;-136;-175;2070;-153;-141;-485;548;-12;16056
14:38:18.083;-145;-135;-128;-148;2070;-152;-147;-358;548;-12;16056
14:38:18.083;-148;-140;-143;-187;2070;-154;-146;-104;548;-12;16056
14:38:18.083;-146;-141;-136;-239;2070;-152;-144;23;548;-12;16056
14:38:18.083;-149;-140;-131;-260;1937;-152;-146;150;512;20;15984
14:38:18.083;-145;-136;-149;-224;2064;-152;-145;23;512;20;15984
14:38:18.083;-144;-135;-152;-169;1945;-152;-143;-257;512;20;15984
14:38:18.083;-149;-145;-151;-125;1963;-151;-143;-130;512;20;15984
14:38:18.083;-148;-146;-130;-137;2019;-153;-145;-389;512;20;15984
14:38:18.083;-147;-146;-135;-195;2070;-152;-147;-262;512;20;15984
14:38:18.083;-146;-139;-140;-240;2070;-151;-144;7;580;8;15980
14:38:18.083;-147;-138;-144;-206;2070;-150;-146;134;580;8;15980
14:38:18.099;-146;-139;-146;-164;2070;-149;-142;-125;580;8;15980
14:38:18.099;-146;-138;-130;-163;2070;-148;-142;2;580;8;15980
14:38:18.099;-143;-135;-133;-216;2070;-150;-145;81;580;8;15980
14:38:18.099;-144;-137;-134;-225;2070;-149;-149;-146;580;8;15980
14:38:18.099;-149;-140;-148;-220;2070;-150;-145;-117;492;16;15972
14:38:18.099;-146;-132;-156;-193;2070;-151;-148;-8;492;16;15972
14:38:18.099;-146;-134;-164;-143;2070;-151;-147;202;492;16;15972
14:38:18.099;-147;-141;-151;-169;2070;-153;-146;75;492;16;15972
14:38:18.099;-147;-138;-144;-174;2070;-148;-148;-243;492;16;15972
14:38:18.099;-145;-135;-143;-179;2011;-153;-150;-218;492;16;15972
14:38:18.099;-146;-142;-135;-226;1678;-155;-145;-331;500;32;15948
14:38:18.099;-144;-139;-136;-171;1551;-152;-147;-204;500;32;15948
14:38:18.115;-148;-143;-148;-169;1634;-151;-143;-255;500;32;15948
14:38:18.115;-145;-146;-142;-167;1819;-152;-146;-128;500;32;15948
14:38:18.115;-146;-143;-148;-155;1719;-149;-149;-167;500;32;15948
14:38:18.115;-147;-140;-144;-158;1453;-152;-147;-171;500;32;15948
14:38:18.115;-145;-138;-137;-171;1519;-152;-143;-326;516;-64;15972
14:38:18.115;-145;-128;-138;-174;1646;-152;-145;-199;516;-64;15972
14:38:18.115;-147;-141;-131;-173;2070;-152;-145;-72;516;-64;15972
14:38:18.115;-151;-137;-142;-171;1960;-150;-147;55;516;-64;15972
14:38:18.115;-147;-141;-131;-174;2070;-149;-144;-52;516;-64;15972
14:38:18.115;-146;-138;-125;-188;2070;-149;-148;237;516;-64;15972
14:38:18.115;-147;-137;-130;-195;2070;-149;-141;-169;464;4;15968
14:38:18.115;-143;-137;-137;-188;2070;-150;-140;-42;464;4;15968
14:38:18.115;-145;-143;-147;-189;2070;-152;-143;-351;464;4;15968
14:38:18.130;-150;-145;-158;-185;2070;-152;-145;-224;464;4;15968
14:38:18.130;-147;-136;-148;-196;2070;-152;-145;-244;464;4;15968
14:38:18.130;-147;-141;-150;-191;2070;-155;-147;13;464;4;15968
14:38:18.130;-149;-140;-140;-178;2070;-154;-146;86;560;-4;16028
14:38:18.130;-144;-138;-139;-177;1788;-151;-144;-41;560;-4;16028
14:38:18.130;-146;-137;-146;-186;1836;-152;-150;213;560;-4;16028
14:38:18.130;-145;-140;-146;-178;1709;-153;-147;207;560;-4;16028
14:38:18.130;-149;-144;-146;-174;1315;-153;-145;80;560;-4;16028
14:38:18.130;-150;-143;-139;-174;1398;-152;-144;192;560;-4;16028
14:38:18.130;-146;-142;-142;-201;1358;-152;-144;-313;472;4;16104
14:38:18.130;-150;-140;-140;-188;1231;-151;-146;-186;472;4;16104
14:38:18.130;-146;-136;-133;-189;1413;-150;-143;-313;472;4;16104
14:38:18.130;-143;-137;-117;-187;1540;-150;-145;-186;472;4;16104
14:38:18.130;-144;-137;-140;-185;2070;-149;-143;-138;472;4;16104
14:38:18.130;-145;-136;-152;-185;2070;-152;-147;-11;472;4;16104
14:38:18.130;-146;-137;-144;-190;2070;-150;-143;-269;520;-12;15952
14:38:18.130;-146;-135;-137;-202;2070;-148;-143;-142;520;-12;15952
14:38:18.146;-148;-141;-139;-216;2070;-150;-146;202;520;-12;15952
14:38:18.146;-146;-139;-139;-187;2070;-148;-146;75;520;-12;15952
14:38:18.146;-147;-140;-147;-166;2070;-147;-142;-288;520;-12;15952
14:38:18.146;-144;-137;-154;-138;2070;-147;-146;-161;520;-12;15952
14:38:18.146;-144;-134;-149;-163;2070;-154;-144;-288;416;12;16044
14:38:18.146;-145;-139;-147;-171;2070;-154;-147;-165;416;12;16044
14:38:18.146;-149;-142;-136;-226;2053;-153;-144;-451;416;12;16044
14:38:18.146;-150;-152;-134;-194;1926;-152;-146;-324;416;12;16044
14:38:18.146;-149;-142;-139;-177;1637;-150;-143;-444;416;12;16044
14:38:18.146;-146;-141;-136;-203;1755;-150;-146;-317;416;12;16044
14:38:18.146;-146;-143;-132;-272;1723;-149;-144;-213;504;-36;15992
14:38:18.146;-144;-142;-150;-342;1647;-152;-144;183;504;-36;15992
14:38:18.146;-143;-141;-156;-309;1870;-152;-146;106;504;-36;15992
14:38:18.146;-143;-130;-143;-182;1959;-150;-146;131;504;-36;15992
14:38:18.146;-144;-134;-135;-103;2070;-151;-145;227;504;-36;15992
14:38:18.146;-145;-127;-131;-32;2070;-145;-144;147;504;-36;15992
14:38:18.146;-146;-129;-128;-45;2070;-147;-141;-231;460;-56;16028
14:38:18.146;-147;-140;-129;-116;2070;-149;-145;-104;460;-56;16028
14:38:18.162;-148;-148;-158;-142;2070;-151;-143;-334;460;-56;16028
14:38:18.162;-152;-149;-155;-161;2070;-152;-147;-237;460;-56;16028
14:38:18.162;-151;-149;-135;-191;2070;-151;-141;-255;460;-56;16028
14:38:18.162;-145;-138;-120;-208;2070;-150;-146;139;460;-56;16028
14:38:18.162;-142;-133;-121;-195;2014;-149;-145;-258;536;24;16016
14:38:18.162;-143;-136;-141;-188;1887;-150;-145;-131;536;24;16016
14:38:18.162;-146;-134;-161;-185;1467;-156;-143;-258;536;24;16016
14:38:18.162;-146;-142;-157;-194;1340;-154;-148;-296;536;24;16016
14:38:18.162;-147;-142;-139;-203;901;-153;-144;-331;536;24;16016
14:38:18.162;-146;-139;-136;-203;1028;-151;-147;-204;536;24;16016
14:38:18.162;-147;-139;-143;-194;1185;-150;-148;-331;532;48;15964
14:38:18.162;-146;-138;-145;-173;1091;-151;-146;-204;532;48;15964
14:38:18.162;-147;-141;-137;-162;1406;-152;-143;-331;532;48;15964
14:38:18.162;-145;-139;-138;-194;1522;-151;-147;-204;532;48;15964
14:38:18.177;-147;-144;-137;-260;1863;-151;-146;-77;532;48;15964
14:38:18.177;-148;-144;-145;-272;1914;-151;-143;50;532;48;15964
14:38:18.177;-148;-135;-148;-238;2070;-151;-144;-77;516;-8;15888
14:38:18.177;-144;-127;-152;-166;2070;-147;-146;50;516;-8;15888
14:38:18.177;-147;-141;-151;-137;2070;-148;-141;-160;516;-8;15888
14:38:18.177;-146;-137;-142;-62;2070;-150;-144;-33;516;-8;15888
14:38:18.177;-145;-126;-137;-87;2070;-149;-147;27;516;-8;15888
14:38:18.177;-143;-132;-133;-178;2070;-153;-148;-225;516;-8;15888
14:38:18.177;-149;-141;-141;-241;2070;-152;-147;-266;496;20;16120
14:38:18.177;-151;-155;-138;-222;2070;-153;-147;124;496;20;16120
14:38:18.177;-149;-145;-126;-194;2070;-154;-149;-244;496;20;16120
14:38:18.177;-148;-141;-146;-165;1943;-151;-147;-117;496;20;16120
14:38:18.177;-147;-143;-151;-179;1352;-153;-144;-244;496;20;16120
14:38:18.177;-145;-134;-150;-163;1225;-153;-148;-117;496;20;16120
14:38:18.193;-143;-130;-147;-174;1120;-153;-144;-377;500;24;16044
14:38:18.193;-143;-132;-146;-190;1087;-152;-145;-250;500;24;16044
14:38:18.193;-149;-140;-147;-186;1421;-153;-146;-123;500;24;16044
14:38:18.193;-146;-140;-139;-174;1343;-151;-147;4;500;24;16044
14:38:18.193;-146;-138;-138;-177;1188;-152;-143;-99;500;24;16044
14:38:18.193;-144;-136;-139;-190;1315;-152;-145;28;500;24;16044
14:38:18.193;-146;-137;-142;-195;1921;-150;-144;102;500;16;15996
14:38:18.193;-147;-137;-144;-182;1963;-151;-147;-25;500;16;15996
14:38:18.193;-148;-134;-141;-168;2070;-153;-142;-312;500;16;15996
14:38:18.193;-147;-141;-139;-204;2070;-150;-147;-185;500;16;15996
14:38:18.193;-147;-141;-143;-185;2070;-150;-145;-58;500;16;15996
14:38:18.193;-146;-137;-141;-164;2070;-151;-144;-102;500;16;15996
14:38:18.193;-144;-138;-142;-176;2070;-149;-148;-200;524;-24;16016
14:38:18.193;-144;-139;-139;-183;2070;-155;-148;-68;524;-24;16016
14:38:18.209;-147;-142;-134;-180;2070;-153;-143;-293;524;-24;16016
14:38:18.209;-148;-137;-139;-160;1945;-152;-147;-166;524;-24;16016
14:38:18.209;-146;-141;-139;-175;1811;-153;-146;-218;524;-24;16016
14:38:18.209;-147;-144;-137;-175;1734;-154;-146;-91;524;-24;16016
14:38:18.209;-147;-146;-138;-198;1328;-153;-145;-218;568;12;16032
14:38:18.209;-145;-139;-137;-227;1333;-152;-148;-330;568;12;16032
14:38:18.209;-147;-142;-138;-220;1390;-151;-143;-369;568;12;16032
14:38:18.209;-147;-141;-138;-204;1657;-153;-144;-242;568;12;16032
14:38:18.209;-150;-141;-143;-178;1883;-152;-144;-320;568;12;16032
14:38:18.209;-147;-141;-146;-203;1948;-153;-145;-193;568;12;16032
14:38:18.209;-149;-136;-145;-230;2070;-150;-145;162;544;44;15908
14:38:18.209;-145;-135;-143;-229;2070;-149;-145;35;544;44;15908
14:38:18.209;-145;-132;-144;-179;2070;-148;-144;-144;544;44;15908
14:38:18.209;-145;-131;-142;-125;2070;-147;-149;-170;544;44;15908
14:38:18.224;-146;-136;-129;-143;2070;-154;-142;-267;544;44;15908
14:38:18.224;-149;-137;-134;-179;2070;-151;-149;-21;544;44;15908
14:38:18.224;-148;-144;-144;-198;2070;-150;-147;168;564;4;16004
14:38:18.224;-149;-144;-141;-190;2070;-152;-145;41;564;4;16004
14:38:18.224;-147;-137;-140;-190;2070;-149;-150;-186;564;4;16004
14:38:18.224;-145;-137;-110;-194;2070;-153;-148;-59;564;4;16004
14:38:18.224;-146;-133;-139;-178;2015;-152;-146;-267;564;4;16004
14:38:18.224;-146;-145;-167;-155;1888;-153;-148;-140;564;4;16004
14:38:18.224;-148;-147;-141;-171;1539;-153;-143;-267;540;-36;15888
14:38:18.224;-145;-140;-140;-181;1486;-153;-144;-140;540;-36;15888
14:38:18.224;-148;-143;-132;-183;1431;-152;-145;44;540;-36;15888
14:38:18.224;-145;-140;-126;-184;1558;-151;-146;31;540;-36;15888
14:38:18.224;-145;-137;-134;-192;1705;-151;-142;-96;540;-36;15888
14:38:18.224;-145;-137;-148;-188;1832;-149;-142;31;540;-36;15888
14:38:18.240;-148;-137;-159;-195;2070;-152;-145;-96;540;20;16216
14:38:18.240;-149;-144;-162;-194;2070;-150;-146;-5;540;20;16216
14:38:18.240;-146;-140;-149;-223;2070;-149;-147;246;540;20;16216
14:38:18.240;-145;-138;-144;-228;2070;-148;-144;119;540;20;16216
14:38:18.240;-144;-138;-132;-244;2070;-149;-140;-163;540;20;16216
14:38:18.240;-143;-138;-135;-230;2070;-146;-140;-36;540;20;16216
14:38:18.240;-144;-125;-145;-144;2070;-152;-141;-316;496;16;15944
14:38:18.240;-145;-132;-153;-86;2070;-152;-150;-189;496;16;15944
14:38:18.240;-150;-143;-164;-104;2070;-155;-144;-355;496;16;15944
14:38:18.240;-148;-143;-141;-132;2070;-153;-148;-228;496;16;15944
14:38:18.240;-149;-142;-124;-164;2070;-152;-146;-101;496;16;15944
14:38:18.240;-145;-136;-106;-175;2070;-156;-145;-228;496;16;15944
14:38:18.240;-143;-141;-112;-202;2070;-152;-153;97;524;-36;15972
14:38:18.240;-142;-139;-127;-209;2070;-154;-147;25;524;-36;15972
14:38:18.255;-145;-137;-160;-218;2070;-153;-147;-129;524;-36;15972
14:38:18.255;-152;-151;-183;-178;2015;-153;-145;-2;524;-36;15972
14:38:18.255;-149;-139;-149;-159;1976;-153;-144;-373;524;-36;15972
14:38:18.255;-145;-134;-150;-159;2070;-149;-147;-246;524;-36;15972
14:38:18.255;-148;-138;-140;-163;2070;-151;-143;-175;564;-76;15932
14:38:18.255;-148;-138;-139;-159;2070;-151;-147;59;564;-76;15932
14:38:18.255;-146;-133;-138;-177;2070;-152;-146;158;564;-76;15932
14:38:18.255;-145;-134;-151;-188;2070;-149;-147;105;564;-76;15932
14:38:18.255;-147;-139;-153;-192;2070;-152;-145;13;564;-76;15932
14:38:18.255;-151;-144;-144;-180;2070;-151;-149;-244;564;-76;15932
14:38:18.255;-148;-146;-142;-180;2070;-151;-146;207;500;-36;15932
14:38:18.255;-148;-139;-139;-188;2070;-151;-145;80;500;-36;15932
14:38:18.255;-145;-138;-144;-187;2070;-148;-151;-287;500;-36;15932
14:38:18.255;-146;-136;-147;-171;2070;-151;-150;-160;500;-36;15932
14:38:18.255;-146;-141;-142;-191;2070;-150;-145;-230;500;-36;15932
14:38:18.271;-145;-136;-146;-192;2070;-153;-147;15;500;-36;15932
14:38:18.271;-148;-135;-137;-191;2070;-152;-146;-190;560;-20;16032
14:38:18.271;-144;-132;-139;-207;2070;-150;-147;-63;560;-20;16032
14:38:18.271;-145;-136;-136;-204;2004;-153;-145;-484;560;-20;16032
14:38:18.271;-148;-141;-139;-158;2070;-150;-146;-357;560;-20;16032
14:38:18.271;-147;-141;-139;-174;2070;-152;-144;-322;560;-20;16032
14:38:18.271;-144;-140;-137;-186;2070;-150;-149;34;560;-20;16032
14:38:18.271;-147;-141;-136;-185;2070;-151;-145;-175;544;32;16052
14:38:18.271;-151;-148;-130;-201;2070;-152;-143;-48;544;32;16052
14:38:18.271;-149;-144;-138;-212;2070;-151;-146;200;544;32;16052
